[{"success":true,"timeout":false,"failed_images":[],"failed_audio":[],"failed_video":[],"trial_type":"preload","trial_index":0,"plugin_version":null,"time_elapsed":4},{"rt":12753,"stimulus":"Connect a device<br>","response":0,"trial_type":"html-button-response","trial_index":1,"plugin_version":"2.0.0","time_elapsed":12759},{"trial_type":"html-button-response","trial_index":2,"plugin_version":"2.0.0","time_elapsed":16061},{"trial_type":"html-keyboard-response","trial_index":3,"plugin_version":null,"time_elapsed":20381},{"success":true,"rt":2599,"trial_type":"fullscreen","trial_index":4,"plugin_version":null,"time_elapsed":23984},{"rt":58299,"stimulus":["\n<h2>Introduction</h2>\n<p1>Please sit comfortably with your face around 50cm from your screen during the experiment.</p1>\n<img src=\"./assets/images/tip.png\" alt=\"Description of the image\" style=\"width:800px;height:auto; display:block; margin: 10px auto;\">\n<div style=\"text-align: center; margin-top: 0%;\">\n    <p style=\"color: #333; max-width: 80%; margin: 0 auto; line-height: 1.5;\">\n      <p1> Click the button below to proceed.</p1>\n    </p>\n</div>\n"],"response":0,"trial_type":"html-button-response","trial_index":5,"plugin_version":"2.0.0","time_elapsed":82285},{"rt":11390,"stimulus":["The first part of the experiment will consist of two different sections:<br><br><ol style='text-align: left;'><li>A practice section so you can get familiarized with the task you will be performing.</li><li>A calibration section to ensure that everything is running correctly.</li></ol><p>Please follow the instructions throughout each section carefully.</p>Press the button below to begin."],"response":0,"trial_type":"html-button-response","trial_index":6,"plugin_version":"2.0.0","time_elapsed":93677},{"rt":37051,"stimulus":["\n<div style=\"display: flex; flex-direction: column; justify-content: center; align-items: center; padding: 10px 0;\">\n  <div style=\"text-align: center; margin-bottom: 2%;\">\n    <p style=\"font-size: 1.5vw; color: #333; max-width: 80%; margin: 0 auto; line-height: 1.5;\">\n      <h2>Tutorial</h2>The video below demonstrates how the task will be performed.<br><br><ol><li> You will place your pinky on the <b>A</b> key<br></li><li> Place your ring finger on the <b>W</b> key<br></li> <li>Place your middle finger on the <b>E</b> key</li><li>Place your left thumb on the <b>spacebar</b> key</li><li>Place your right index finger on the <b>right arrow</b> key</li></ol><br><p>While still holding down with these fingers, simultaneously, when you see the <b>GO!</b>, tap the <b>F</b> key, <b>repeatedly</b> with your index finger <b>as fast as you can!</b></p><ul class = 'warning'><li>Do not tap the <b>F</b> key until the <b>GO!</b> appears</li> <li>Do not release the <b>A</b>, <b>W</b>, <b>E</b>, <b>Spacebar</b>, <b>Right Arrow</b> until prompted.</li></ul>. <br />Click the continue at the bottom to proceed to the test trial.\n    </p>\n  </div>\n  <div style=\"flex-grow: 1; display: flex; justify-content: center; align-items: center; margin: 0 auto;\">\n    <div style=\"width: 60%; max-width: 550px; height: auto; background-color: rgb(255, 255, 255);\">\n      <video\n        id=\"videoTutorial\"\n        title=\"Tutorial Video\"\n        style=\"width: 100%; height: auto;\"\n        src=\"./assets/videos/calibration-part1.mp4\"\n        autoplay\n        muted\n        loop\n      ></video>\n    </div>\n  </div>\n    <p>\n      <p1> Click the button below to proceed.</p1>\n    </p>\n</div>"],"response":0,"trial_type":"html-button-response","trial_index":7,"plugin_version":"2.0.0","time_elapsed":130734},{"rt":37093,"stimulus":["\n<h2>Tutorial</h2>\n<p1>The image below shows how the fingers of <b>your left hand</b> should be placed on the keyboard throughout the task. <br /><b>The index finger of your right hand should be on the right arrow at the same time.</b></p1>\n<img src='./assets/images/hand.png' alt=\"Description of the image\" style=\"width:500px;height:auto; display:block; margin: 10px auto;\">\n<div style=\"text-align: center; margin-top: 0%;\">\n    <p style=\"color: #333; max-width: 80%; margin: 0 auto; line-height: 1.5;\">\n      <p1> Click the button below to proceed.</p1>\n    </p>\n</div>\n"],"response":0,"trial_type":"html-button-response","trial_index":8,"plugin_version":"2.0.0","time_elapsed":167830},{"task":"countdown","keyTappedEarlyFlag":false,"trial_type":"countdown-trial","trial_index":9,"plugin_version":"1.0","time_elapsed":184459},{"tapCount":24,"startTime":184462,"endTime":191464,"mercuryHeight":96,"error":"","bounds":[20,40],"reward":0,"task":"practice","errorOccurred":false,"keysReleasedFlag":false,"success":false,"keyTappedEarlyFlag":false,"keysState":{"a":true,"w":true,"e":true," ":true,"arrowright":true},"trial_type":"task-plugin","trial_index":10,"plugin_version":"1.0","time_elapsed":191465},{"errorOccurred":false,"trial_type":"release-keys","trial_index":11,"plugin_version":"1.0","time_elapsed":192537},{"task":"success","success":true,"trial_type":"success-screen-plugin","trial_index":12,"plugin_version":null,"time_elapsed":193040},{"trial_type":"html-keyboard-response","trial_index":13,"plugin_version":null,"time_elapsed":196375},{"task":"countdown","keyTappedEarlyFlag":false,"trial_type":"countdown-trial","trial_index":14,"plugin_version":"1.0","time_elapsed":203386},{"tapCount":27,"startTime":203386,"endTime":210387,"mercuryHeight":98,"error":"","bounds":[20,40],"reward":0,"task":"practice","errorOccurred":false,"keysReleasedFlag":false,"success":false,"keyTappedEarlyFlag":false,"keysState":{"a":true,"w":true,"e":true," ":true,"arrowright":true},"trial_type":"task-plugin","trial_index":15,"plugin_version":"1.0","time_elapsed":210388},{"errorOccurred":false,"trial_type":"release-keys","trial_index":16,"plugin_version":"1.0","time_elapsed":211200},{"task":"success","success":true,"trial_type":"success-screen-plugin","trial_index":17,"plugin_version":null,"time_elapsed":211703},{"trial_type":"html-keyboard-response","trial_index":18,"plugin_version":null,"time_elapsed":215043},{"rt":5723,"stimulus":["<h2>Calibration</h2>You will now begin the <b>Calibration</b> section of the experiment, which consists of <b>three</b> parts. <br>Press the button below to begin."],"response":0,"trial_type":"html-button-response","trial_index":19,"plugin_version":"2.0.0","time_elapsed":220767},{"rt":9717,"stimulus":"\n    <div style=\"display: flex; flex-direction: column; justify-content: center; align-items: center; text-align: center;\">\n      <p style=\"margin-bottom: 20px;\">\n        <h2>Calibration</h2><h3>Part 1</h3><p>You will perform the same task as the practice section.</p><ol><li> You will place your pinky on the <b>A</b> key<br></li><li> Place your ring finger on the <b>W</b> key<br></li> <li>Place your middle finger on the <b>E</b> key</li><li>Place your left thumb on the <b>spacebar</b> key</li><li>Place your right index finger on the <b>right arrow</b> key</li></ol><br><p>While still holding down with these fingers, simultaneously, when you see the <b>GO!</b>, tap the <b>F</b> key, <b>repeatedly</b> with your index finger <b>as fast as you can!</b></p><br><ul class = 'warning'><li>Do not tap the <b>F</b> key until the <b>GO!</b> appears</li> <li>Do not release the <b>A</b>, <b>W</b>, <b>E</b>, <b>Spacebar</b>, <b>Right Arrow</b> until prompted.</li></ul> <br><br> <p1>Press the button below to proceed.</p1>\n      </p>\n    </div>","response":0,"trial_type":"html-button-response","trial_index":20,"plugin_version":"2.0.0","time_elapsed":230487},{"task":"countdown","keyTappedEarlyFlag":false,"trial_type":"countdown-trial","trial_index":21,"plugin_version":"1.0","time_elapsed":235705},{"tapCount":29,"startTime":235706,"endTime":242707,"mercuryHeight":98,"error":"","bounds":[50,50],"reward":0,"task":"calibrationPart1","errorOccurred":false,"keysReleasedFlag":false,"success":false,"keyTappedEarlyFlag":false,"keysState":{"a":true,"w":true,"e":true," ":true,"arrowright":true},"trial_type":"task-plugin","trial_index":22,"plugin_version":"1.0","time_elapsed":242707,"medianTaps":{"calibrationPart1":29,"calibrationPart2":37,"finalCalibrationPart1":30.5,"finalCalibrationPart2":32.5}},{"errorOccurred":false,"trial_type":"release-keys","trial_index":23,"plugin_version":"1.0","time_elapsed":243410},{"trial_type":"html-keyboard-response","trial_index":24,"plugin_version":null,"time_elapsed":246749},{"task":"countdown","keyTappedEarlyFlag":false,"trial_type":"countdown-trial","trial_index":25,"plugin_version":"1.0","time_elapsed":251697},{"tapCount":29,"startTime":251698,"endTime":258699,"mercuryHeight":65.99999999999997,"error":"","bounds":[50,50],"reward":0,"task":"calibrationPart1","errorOccurred":false,"keysReleasedFlag":false,"success":false,"keyTappedEarlyFlag":false,"keysState":{"a":true,"w":true,"e":true," ":true,"arrowright":true},"trial_type":"task-plugin","trial_index":26,"plugin_version":"1.0","time_elapsed":258700,"medianTaps":{"calibrationPart1":29,"calibrationPart2":37,"finalCalibrationPart1":30.5,"finalCalibrationPart2":32.5}},{"errorOccurred":false,"trial_type":"release-keys","trial_index":27,"plugin_version":"1.0","time_elapsed":259539},{"trial_type":"html-keyboard-response","trial_index":28,"plugin_version":null,"time_elapsed":262780},{"rt":5958,"stimulus":["\n<div style=\"display: flex; flex-direction: column; justify-content: center; align-items: center; padding: 10px 0;\">\n  <div style=\"text-align: center; margin-bottom: 0%;\">\n    <p>\n      <h2>Calibration</h2><h3>Part 2</h3><p1>Get the red bar as high as possible with your taps!</p1><br><ul class = 'warning'><li>Do not tap the <b>F</b> key until the <b>GO!</b> appears</li> <li>Do not release the <b>A</b>, <b>W</b>, <b>E</b>, <b>Spacebar</b>, <b>Right Arrow</b> until prompted.</li></ul>\n    </p>\n  </div>\n  <div style=\"flex-grow: 1; display: flex; justify-content: center; align-items: center;\">\n    <div style=\"width: 40%; max-width: 700px; height: auto; background-color: rgb(255, 255, 255);\">\n      <video\n        id=\"videoTutorial\"\n        title=\"Tutorial Video\"\n        style=\"width: 100%; height: auto;\"\n        src=\"./assets/videos/calibration-part2.mp4\"\n        autoplay\n        muted\n        loop\n      ></video>\n    </div>\n  </div>\n  <div style=\"text-align: center; margin-top: 0%;\">\n    <p>\n      <p1> Click the button below to proceed.</p1>\n    </p>\n  </div>\n</div>"],"response":0,"trial_type":"html-button-response","trial_index":30,"plugin_version":"2.0.0","time_elapsed":268744},{"task":"countdown","keyTappedEarlyFlag":false,"trial_type":"countdown-trial","trial_index":31,"plugin_version":"1.0","time_elapsed":274515},{"tapCount":39,"startTime":274516,"endTime":281517,"mercuryHeight":96,"error":"","bounds":[50,50],"reward":0,"task":"calibrationPart2","errorOccurred":false,"keysReleasedFlag":false,"success":false,"keyTappedEarlyFlag":false,"keysState":{"a":true,"w":true,"e":true," ":true,"arrowright":true},"trial_type":"task-plugin","trial_index":32,"plugin_version":"1.0","time_elapsed":281518,"medianTaps":{"calibrationPart1":29,"calibrationPart2":37,"finalCalibrationPart1":30.5,"finalCalibrationPart2":32.5}},{"errorOccurred":false,"trial_type":"release-keys","trial_index":33,"plugin_version":"1.0","time_elapsed":282259},{"trial_type":"html-keyboard-response","trial_index":34,"plugin_version":null,"time_elapsed":286300},{"task":"countdown","keyTappedEarlyFlag":false,"trial_type":"countdown-trial","trial_index":35,"plugin_version":"1.0","time_elapsed":291258},{"tapCount":35,"startTime":291259,"endTime":298261,"mercuryHeight":96,"error":"","bounds":[50,50],"reward":0,"task":"calibrationPart2","errorOccurred":false,"keysReleasedFlag":false,"success":false,"keyTappedEarlyFlag":false,"keysState":{"a":true,"w":true,"e":true," ":true,"arrowright":true},"trial_type":"task-plugin","trial_index":36,"plugin_version":"1.0","time_elapsed":298261,"medianTaps":{"calibrationPart1":29,"calibrationPart2":37,"finalCalibrationPart1":30.5,"finalCalibrationPart2":32.5}},{"errorOccurred":false,"trial_type":"release-keys","trial_index":37,"plugin_version":"1.0","time_elapsed":298897},{"trial_type":"html-keyboard-response","trial_index":38,"plugin_version":null,"time_elapsed":301830},{"rt":38725,"stimulus":["\n<div style=\"display: flex; flex-direction: column; justify-content: center; align-items: center; padding: 10px 0;\">\n  <div style=\"text-align: center; margin-bottom: 0%;\">\n    <p>\n      <h2>Calibration</h2><h3>Part 3</h3><p1>Get the top of the red bar in the target area with your taps!</p1><br><ul class = 'warning'><li>Do not tap the <b>F</b> key until the <b>GO!</b> appears</li> <li>Do not release the <b>A</b>, <b>W</b>, <b>E</b>, <b>Spacebar</b>, <b>Right Arrow</b> until prompted.</li></ul>\n    </p>\n  </div>\n  <div style=\"flex-grow: 1; display: flex; justify-content: center; align-items: center;\">\n    <div style=\"width: 100%; max-width: 500px; height: auto; background-color: rgb(255, 255, 255);\">\n      <video\n        id=\"videoTutorial\"\n        title=\"Tutorial Video\"\n        style=\"width: 100%; height: auto;\"\n        src=\"./assets/videos/validation.mp4\"\n        autoplay\n        muted\n        loop\n      ></video>\n    </div>\n  </div>\n  <div style=\"text-align: center; margin-top: 0%;\">\n    <p>\n      <p1> Click the button below to proceed.</p1>\n    </p>\n  </div>\n</div>"],"response":0,"trial_type":"html-button-response","trial_index":40,"plugin_version":"2.0.0","time_elapsed":340561},{"task":"countdown","keyTappedEarlyFlag":false,"trial_type":"countdown-trial","trial_index":41,"plugin_version":"1.0","time_elapsed":346011},{"task":"validationEasy","tapCount":26,"startTime":346013,"endTime":353014,"mercuryHeight":42.64864864864862,"error":"","bounds":[30,50],"reward":0,"errorOccurred":false,"keysReleasedFlag":false,"success":true,"keyTappedEarlyFlag":false,"keysState":{"a":true,"w":true,"e":true," ":true,"arrowright":true},"trial_type":"task-plugin","trial_index":42,"plugin_version":"1.0","time_elapsed":353014},{"errorOccurred":false,"trial_type":"release-keys","trial_index":43,"plugin_version":"1.0","time_elapsed":353656},{"task":"success","success":true,"trial_type":"success-screen-plugin","trial_index":44,"plugin_version":null,"time_elapsed":354159},{"trial_type":"html-keyboard-response","trial_index":45,"plugin_version":null,"time_elapsed":357598},{"task":"countdown","keyTappedEarlyFlag":false,"trial_type":"countdown-trial","trial_index":46,"plugin_version":"1.0","time_elapsed":361668},{"task":"validationMedium","tapCount":30,"startTime":361669,"endTime":368669,"mercuryHeight":62.59459459459457,"error":"","bounds":[50,70],"reward":0,"errorOccurred":false,"keysReleasedFlag":false,"success":true,"keyTappedEarlyFlag":false,"keysState":{"a":true,"w":true,"e":true," ":true,"arrowright":true},"trial_type":"task-plugin","trial_index":47,"plugin_version":"1.0","time_elapsed":368670},{"errorOccurred":false,"trial_type":"release-keys","trial_index":48,"plugin_version":"1.0","time_elapsed":369369},{"task":"success","success":true,"trial_type":"success-screen-plugin","trial_index":49,"plugin_version":null,"time_elapsed":369871},{"trial_type":"html-keyboard-response","trial_index":50,"plugin_version":null,"time_elapsed":372704},{"task":"countdown","keyTappedEarlyFlag":false,"trial_type":"countdown-trial","trial_index":51,"plugin_version":"1.0","time_elapsed":377013},{"task":"validationHard","tapCount":32,"startTime":377014,"endTime":384015,"mercuryHeight":77.56756756756752,"error":"","bounds":[70,90],"reward":0,"errorOccurred":false,"keysReleasedFlag":false,"success":true,"keyTappedEarlyFlag":false,"keysState":{"a":true,"w":true,"e":true," ":true,"arrowright":true},"trial_type":"task-plugin","trial_index":52,"plugin_version":"1.0","time_elapsed":384015},{"errorOccurred":false,"trial_type":"release-keys","trial_index":53,"plugin_version":"1.0","time_elapsed":384706},{"task":"success","success":true,"trial_type":"success-screen-plugin","trial_index":54,"plugin_version":null,"time_elapsed":385208},{"trial_type":"html-keyboard-response","trial_index":55,"plugin_version":null,"time_elapsed":388452},{"additional":true,"validation":true,"rt":8739,"response":{"Your Level of Attention":6},"question_order":[0],"trial_type":"survey-likert","trial_index":57,"plugin_version":null,"time_elapsed":397195},{"additional":true,"validation":true,"rt":4788,"response":{"Your Level of Motivation":6},"question_order":[0],"trial_type":"survey-likert","trial_index":58,"plugin_version":null,"time_elapsed":401984},{"additional":true,"validation":true,"rt":6200,"response":{"Your Level of Muscular Fatigue of the Left Arm":0},"question_order":[0],"trial_type":"survey-likert","trial_index":59,"plugin_version":null,"time_elapsed":408186},{"additional":true,"validation":true,"rt":3006,"response":{"Your Level of Overall Tiredness":0},"question_order":[0],"trial_type":"survey-likert","trial_index":60,"plugin_version":null,"time_elapsed":411194},{"rt":192501,"stimulus":["\n<div style=\"text-align: center; margin: 0 10%;\">\n  <h2>Trial Blocks</h2>\n  <p>\n    During this next phase of the experiment, you will have the choice to skip or accept a trial.<br><br>You may skip the trial with the <b>Left Arrow</b> on your keyboard<br>or<br>You may accept a trial with the <b>Right Arrow</b> on your keyboard<br><br>If the trial is accepted, you <b>may</b> have to complete a tapping task. The required target area or the task will be shown in <b>blue</b>. If the <b>top of the red bar</b> ends <b>inside</b> the target area during the trial, you will receive the reward shown to you.<br /><br /><h4>ⓘ Before the block begins, you will have a set of practice trials to familiarize yourself with the task.</h4>\n  </p>\n  <p style=\"color: #333; max-width: 80%; margin: 0 auto; line-height: 1.5;\">\n    <p1> Click the button below to proceed.</p1>\n  </p>\n</div>\n"],"response":0,"trial_type":"html-button-response","trial_index":61,"plugin_version":"2.0.0","time_elapsed":603700},{"rt":13038,"stimulus":["\n<div style=\"text-align: center; margin: 0 10%;\">\n  <h2>Reward Information</h2>\n  <p>\n    During this part of the experiment you will also start earning your additional reward.<br><br>For each trial offer, you will see what tapping effort you will have to do to succeed, based on how high-up the target area is located. Moreover, you will be able to see the reward (in points) you receive, if you succeed the trial. <h4>For every trial, the question to you is: <b>is it worth putting in this much tapping effort, for this reward?</b></h4>If you accept a trial, you <b>may</b> have to perform the tapping and <b>if you succeed, you will receive the points.</b> If you decline, you will move on to the next trial <b>and you will not receive the points.</b><br /><br />Your final reward money is based on the percentage of points that you collect.\n  </p>\n  <p style=\"color: #333; max-width: 80%; margin: 0 auto; line-height: 1.5;\">\n    <p1> Click the button below to proceed.</p1>\n  </p>\n</div>\n"],"response":0,"trial_type":"html-button-response","trial_index":62,"plugin_version":"2.0.0","time_elapsed":616740},{"rt":17653,"stimulus":"<p><p><br>The next <b>3</b> trials you will complete are <b>practice</b> trials.<br>The feedback you receive on the display when the <b>F</b> key is tapped will be the same as in the next block of trials that you will complete. <br><br> Attempt to finish the trial with the top of the red bar within the target area. <br><ul class = 'warning'><li>Do not tap the <b>F</b> key until the <b>GO!</b> appears</li> <li>Do not release the <b>A</b>, <b>W</b>, <b>E</b>, <b>Spacebar</b>, <b>Right Arrow</b> until prompted.</li></ul></p>","response":0,"trial_type":"html-button-response","trial_index":63,"plugin_version":"2.0.0","time_elapsed":634396},{"task":"countdown","keyTappedEarlyFlag":false,"trial_type":"countdown-trial","trial_index":64,"plugin_version":"1.0","time_elapsed":642661},{"blockType":"sync","task":"demo","randomDelay":[0,0],"bounds":[20,40],"reward":0,"tapCount":24,"startTime":642663,"endTime":649665,"mercuryHeight":27.675675675675695,"error":"","errorOccurred":false,"keysReleasedFlag":false,"success":true,"keyTappedEarlyFlag":false,"keysState":{"a":true,"w":true,"e":true," ":true,"arrowright":true},"trial_type":"task-plugin","trial_index":65,"plugin_version":"1.0","time_elapsed":649665,"minimumTapsReached":true},{"errorOccurred":false,"trial_type":"release-keys","trial_index":66,"plugin_version":"1.0","time_elapsed":650352},{"trial_type":"html-keyboard-response","trial_index":68,"plugin_version":null,"time_elapsed":653588},{"task":"countdown","keyTappedEarlyFlag":false,"trial_type":"countdown-trial","trial_index":69,"plugin_version":"1.0","time_elapsed":658712},{"blockType":"sync","task":"demo","randomDelay":[0,0],"bounds":[45,65],"reward":0,"tapCount":29,"startTime":658713,"endTime":665714,"mercuryHeight":58.10810810810808,"error":"","errorOccurred":false,"keysReleasedFlag":false,"success":true,"keyTappedEarlyFlag":false,"keysState":{"a":true,"w":true,"e":true," ":true,"arrowright":true},"trial_type":"task-plugin","trial_index":70,"plugin_version":"1.0","time_elapsed":665715,"minimumTapsReached":true},{"errorOccurred":false,"trial_type":"release-keys","trial_index":71,"plugin_version":"1.0","time_elapsed":666328},{"trial_type":"html-keyboard-response","trial_index":73,"plugin_version":null,"time_elapsed":669662},{"task":"countdown","keyTappedEarlyFlag":false,"trial_type":"countdown-trial","trial_index":74,"plugin_version":"1.0","time_elapsed":673578},{"blockType":"sync","task":"demo","randomDelay":[0,0],"bounds":[70,90],"reward":0,"tapCount":32,"startTime":673579,"endTime":680581,"mercuryHeight":77.56756756756752,"error":"","errorOccurred":false,"keysReleasedFlag":false,"success":true,"keyTappedEarlyFlag":false,"keysState":{"a":true,"w":true,"e":true," ":true,"arrowright":true},"trial_type":"task-plugin","trial_index":75,"plugin_version":"1.0","time_elapsed":680581,"minimumTapsReached":true},{"errorOccurred":false,"trial_type":"release-keys","trial_index":76,"plugin_version":"1.0","time_elapsed":681239},{"trial_type":"html-keyboard-response","trial_index":78,"plugin_version":null,"time_elapsed":684480},{"rt":4131,"stimulus":["You will now answer a few questions. Press the button below to proceed."],"response":0,"trial_type":"html-button-response","trial_index":79,"plugin_version":"2.0.0","time_elapsed":688613},{"rt":7273,"response":{"I felt I was in control of the bar's movement.":5},"question_order":[0],"trial_type":"survey-likert","trial_index":80,"plugin_version":null,"time_elapsed":695887},{"additional":true,"rt":8644,"response":{"I found the task difficult.":1},"question_order":[0],"trial_type":"survey-likert","trial_index":81,"plugin_version":null,"time_elapsed":704534},{"task":"accept","reward":25,"bounds":[42.49570342855009,62.49570342855009],"originalBounds":[45,65],"delay":[0,0],"rt":8293,"stimulus":"\n<div\n  id=\"acceptance-container\"\n  style=\"display: flex; flex-direction: column; justify-content: center; align-items: center; height: 100%;\"\n>\n  <div\n    id=\"thermometer-container\"\n    style=\"display: flex; justify-content: center; align-items: center; height: 300px; width: 100px; border: 1px solid #000; margin-bottom: 10px; box-sizing: border-box;\"\n  >\n    <div\n      id=\"thermometer\"\n      style=\"position: relative; width: 100%; height: 100%; background-color: #e0e0e0; box-sizing: border-box;\"\n    >\n      <div\n        id=\"blue-area\"\n        style=\"position: absolute; bottom: 42.49570342855009%; height: 20%; width: 100%; background-color: blue;\"\n      ></div>\n      <div\n        id=\"lower-bound\"\n        style=\"position: absolute; bottom: 42.49570342855009%; width: 100%; height: 2px; background-color: black;\"\n      ></div>\n      <div\n        id=\"upper-bound\"\n        style=\"position: absolute; bottom: 62.49570342855009%; width: 100%; height: 2px; background-color: black;\"\n      ></div>\n    </div>\n  </div>\n  <p style=\"text-align: center;\">Reward:  25 points</p>\n  <p style=\"text-align: center;\"><br>Press the <b>Right Arrow</b> on your keyboard to accept the trial <svg class='right-arrow' style='width: 48px; height: 48px;'xmlns='http://www.w3.org/2000/svg' viewBox='0 0 16 16'><path fill-rule='evenodd' d='M10.146 4.646a.5.5 0 0 1 .708 0l2.646 2.647-2.646 2.646a.5.5 0 0 1-.708-.707L11.293 8H2a.5.5 0 0 1 0-1h9.293L10.146 5.354a.5.5 0 0 1 0-.708z'/></svg><br>or<br><svg class='left-arrow' style='width: 48px; height: 48px;' xmlns='http://www.w3.org/2000/svg' viewBox='0 0 16 16'><path fill-rule='evenodd' d='M5.854 4.646a.5.5 0 0 0-.708 0L2.5 7.293l2.646 2.647a.5.5 0 0 0 .708-.707L4.707 8H14a.5.5 0 0 0 0-1H4.707l1.147-1.146a.5.5 0 0 0 0-.708z'/></svg>Press the <b>Left Arrow</b> on your keyboard to skip the trial</p>\n</div>\n","response":"ArrowRight","trial_type":"html-keyboard-response","trial_index":82,"plugin_version":null,"time_elapsed":712831,"accepted":true},{"blockType":"sync","task":"block","randomDelay":[0,0],"bounds":[42.49570342855009,62.49570342855009],"reward":25,"tapCount":0,"startTime":0,"endTime":0,"mercuryHeight":0,"error":"","errorOccurred":false,"keysReleasedFlag":false,"success":true,"keyTappedEarlyFlag":false,"keysState":{"a":true,"w":true,"e":true," ":true,"arrowright":true},"trial_type":"task-plugin","trial_index":83,"plugin_version":"1.0","time_elapsed":712833,"medianTaps":{"calibrationPart1Median":29,"calibrationPart2Median":37}},{"task":"success","success":true,"trial_type":"success-screen-plugin","trial_index":85,"plugin_version":null,"time_elapsed":713338},{"trial_type":"html-keyboard-response","trial_index":86,"plugin_version":null,"time_elapsed":713643},{"task":"accept","reward":11,"bounds":[42.5901167363913,62.5901167363913],"originalBounds":[45,65],"delay":[0,0],"rt":2842,"stimulus":"\n<div\n  id=\"acceptance-container\"\n  style=\"display: flex; flex-direction: column; justify-content: center; align-items: center; height: 100%;\"\n>\n  <div\n    id=\"thermometer-container\"\n    style=\"display: flex; justify-content: center; align-items: center; height: 300px; width: 100px; border: 1px solid #000; margin-bottom: 10px; box-sizing: border-box;\"\n  >\n    <div\n      id=\"thermometer\"\n      style=\"position: relative; width: 100%; height: 100%; background-color: #e0e0e0; box-sizing: border-box;\"\n    >\n      <div\n        id=\"blue-area\"\n        style=\"position: absolute; bottom: 42.5901167363913%; height: 20%; width: 100%; background-color: blue;\"\n      ></div>\n      <div\n        id=\"lower-bound\"\n        style=\"position: absolute; bottom: 42.5901167363913%; width: 100%; height: 2px; background-color: black;\"\n      ></div>\n      <div\n        id=\"upper-bound\"\n        style=\"position: absolute; bottom: 62.5901167363913%; width: 100%; height: 2px; background-color: black;\"\n      ></div>\n    </div>\n  </div>\n  <p style=\"text-align: center;\">Reward:  11 points</p>\n  <p style=\"text-align: center;\"><br>Press the <b>Right Arrow</b> on your keyboard to accept the trial <svg class='right-arrow' style='width: 48px; height: 48px;'xmlns='http://www.w3.org/2000/svg' viewBox='0 0 16 16'><path fill-rule='evenodd' d='M10.146 4.646a.5.5 0 0 1 .708 0l2.646 2.647-2.646 2.646a.5.5 0 0 1-.708-.707L11.293 8H2a.5.5 0 0 1 0-1h9.293L10.146 5.354a.5.5 0 0 1 0-.708z'/></svg><br>or<br><svg class='left-arrow' style='width: 48px; height: 48px;' xmlns='http://www.w3.org/2000/svg' viewBox='0 0 16 16'><path fill-rule='evenodd' d='M5.854 4.646a.5.5 0 0 0-.708 0L2.5 7.293l2.646 2.647a.5.5 0 0 0 .708-.707L4.707 8H14a.5.5 0 0 0 0-1H4.707l1.147-1.146a.5.5 0 0 0 0-.708z'/></svg>Press the <b>Left Arrow</b> on your keyboard to skip the trial</p>\n</div>\n","response":"ArrowRight","trial_type":"html-keyboard-response","trial_index":89,"plugin_version":null,"time_elapsed":716487,"accepted":true},{"task":"countdown","keyTappedEarlyFlag":false,"trial_type":"countdown-trial","trial_index":90,"plugin_version":"1.0","time_elapsed":722352},{"blockType":"sync","task":"block","randomDelay":[0,0],"bounds":[42.5901167363913,62.5901167363913],"reward":11,"tapCount":28,"startTime":722353,"endTime":729353,"mercuryHeight":49.621621621621586,"error":"","errorOccurred":false,"keysReleasedFlag":false,"success":true,"keyTappedEarlyFlag":false,"keysState":{"a":true,"w":true,"e":true," ":true,"arrowright":true},"trial_type":"task-plugin","trial_index":91,"plugin_version":"1.0","time_elapsed":729354,"medianTaps":{"calibrationPart1Median":29,"calibrationPart2Median":37}},{"errorOccurred":false,"trial_type":"release-keys","trial_index":92,"plugin_version":"1.0","time_elapsed":730093},{"task":"success","success":true,"trial_type":"success-screen-plugin","trial_index":93,"plugin_version":null,"time_elapsed":730595},{"trial_type":"html-keyboard-response","trial_index":95,"plugin_version":null,"time_elapsed":734231},{"task":"accept","reward":1,"bounds":[20.823218539651965,40.82321853965196],"originalBounds":[20,40],"delay":[0,0],"rt":2046,"stimulus":"\n<div\n  id=\"acceptance-container\"\n  style=\"display: flex; flex-direction: column; justify-content: center; align-items: center; height: 100%;\"\n>\n  <div\n    id=\"thermometer-container\"\n    style=\"display: flex; justify-content: center; align-items: center; height: 300px; width: 100px; border: 1px solid #000; margin-bottom: 10px; box-sizing: border-box;\"\n  >\n    <div\n      id=\"thermometer\"\n      style=\"position: relative; width: 100%; height: 100%; background-color: #e0e0e0; box-sizing: border-box;\"\n    >\n      <div\n        id=\"blue-area\"\n        style=\"position: absolute; bottom: 20.823218539651965%; height: 19.999999999999996%; width: 100%; background-color: blue;\"\n      ></div>\n      <div\n        id=\"lower-bound\"\n        style=\"position: absolute; bottom: 20.823218539651965%; width: 100%; height: 2px; background-color: black;\"\n      ></div>\n      <div\n        id=\"upper-bound\"\n        style=\"position: absolute; bottom: 40.82321853965196%; width: 100%; height: 2px; background-color: black;\"\n      ></div>\n    </div>\n  </div>\n  <p style=\"text-align: center;\">Reward:  1 points</p>\n  <p style=\"text-align: center;\"><br>Press the <b>Right Arrow</b> on your keyboard to accept the trial <svg class='right-arrow' style='width: 48px; height: 48px;'xmlns='http://www.w3.org/2000/svg' viewBox='0 0 16 16'><path fill-rule='evenodd' d='M10.146 4.646a.5.5 0 0 1 .708 0l2.646 2.647-2.646 2.646a.5.5 0 0 1-.708-.707L11.293 8H2a.5.5 0 0 1 0-1h9.293L10.146 5.354a.5.5 0 0 1 0-.708z'/></svg><br>or<br><svg class='left-arrow' style='width: 48px; height: 48px;' xmlns='http://www.w3.org/2000/svg' viewBox='0 0 16 16'><path fill-rule='evenodd' d='M5.854 4.646a.5.5 0 0 0-.708 0L2.5 7.293l2.646 2.647a.5.5 0 0 0 .708-.707L4.707 8H14a.5.5 0 0 0 0-1H4.707l1.147-1.146a.5.5 0 0 0 0-.708z'/></svg>Press the <b>Left Arrow</b> on your keyboard to skip the trial</p>\n</div>\n","response":"ArrowRight","trial_type":"html-keyboard-response","trial_index":97,"plugin_version":null,"time_elapsed":736279,"accepted":true},{"task":"countdown","keyTappedEarlyFlag":false,"trial_type":"countdown-trial","trial_index":98,"plugin_version":"1.0","time_elapsed":741376},{"blockType":"sync","task":"block","randomDelay":[0,0],"bounds":[20.823218539651965,40.82321853965196],"reward":1,"tapCount":25,"startTime":741378,"endTime":748379,"mercuryHeight":31.675675675675663,"error":"","errorOccurred":false,"keysReleasedFlag":false,"success":true,"keyTappedEarlyFlag":false,"keysState":{"a":true,"w":true,"e":true," ":true,"arrowright":true},"trial_type":"task-plugin","trial_index":99,"plugin_version":"1.0","time_elapsed":748380,"medianTaps":{"calibrationPart1Median":29,"calibrationPart2Median":37}},{"errorOccurred":false,"trial_type":"release-keys","trial_index":100,"plugin_version":"1.0","time_elapsed":749061},{"task":"success","success":true,"trial_type":"success-screen-plugin","trial_index":101,"plugin_version":null,"time_elapsed":749563},{"trial_type":"html-keyboard-response","trial_index":103,"plugin_version":null,"time_elapsed":753209},{"task":"accept","reward":24,"bounds":[19.65761678431968,39.65761678431968],"originalBounds":[20,40],"delay":[0,0],"rt":1964,"stimulus":"\n<div\n  id=\"acceptance-container\"\n  style=\"display: flex; flex-direction: column; justify-content: center; align-items: center; height: 100%;\"\n>\n  <div\n    id=\"thermometer-container\"\n    style=\"display: flex; justify-content: center; align-items: center; height: 300px; width: 100px; border: 1px solid #000; margin-bottom: 10px; box-sizing: border-box;\"\n  >\n    <div\n      id=\"thermometer\"\n      style=\"position: relative; width: 100%; height: 100%; background-color: #e0e0e0; box-sizing: border-box;\"\n    >\n      <div\n        id=\"blue-area\"\n        style=\"position: absolute; bottom: 19.65761678431968%; height: 20%; width: 100%; background-color: blue;\"\n      ></div>\n      <div\n        id=\"lower-bound\"\n        style=\"position: absolute; bottom: 19.65761678431968%; width: 100%; height: 2px; background-color: black;\"\n      ></div>\n      <div\n        id=\"upper-bound\"\n        style=\"position: absolute; bottom: 39.65761678431968%; width: 100%; height: 2px; background-color: black;\"\n      ></div>\n    </div>\n  </div>\n  <p style=\"text-align: center;\">Reward:  24 points</p>\n  <p style=\"text-align: center;\"><br>Press the <b>Right Arrow</b> on your keyboard to accept the trial <svg class='right-arrow' style='width: 48px; height: 48px;'xmlns='http://www.w3.org/2000/svg' viewBox='0 0 16 16'><path fill-rule='evenodd' d='M10.146 4.646a.5.5 0 0 1 .708 0l2.646 2.647-2.646 2.646a.5.5 0 0 1-.708-.707L11.293 8H2a.5.5 0 0 1 0-1h9.293L10.146 5.354a.5.5 0 0 1 0-.708z'/></svg><br>or<br><svg class='left-arrow' style='width: 48px; height: 48px;' xmlns='http://www.w3.org/2000/svg' viewBox='0 0 16 16'><path fill-rule='evenodd' d='M5.854 4.646a.5.5 0 0 0-.708 0L2.5 7.293l2.646 2.647a.5.5 0 0 0 .708-.707L4.707 8H14a.5.5 0 0 0 0-1H4.707l1.147-1.146a.5.5 0 0 0 0-.708z'/></svg>Press the <b>Left Arrow</b> on your keyboard to skip the trial</p>\n</div>\n","response":"ArrowRight","trial_type":"html-keyboard-response","trial_index":105,"plugin_version":null,"time_elapsed":755175,"accepted":true},{"task":"countdown","keyTappedEarlyFlag":false,"trial_type":"countdown-trial","trial_index":106,"plugin_version":"1.0","time_elapsed":759591},{"blockType":"sync","task":"block","randomDelay":[0,0],"bounds":[19.65761678431968,39.65761678431968],"reward":24,"tapCount":24,"startTime":759592,"endTime":766593,"mercuryHeight":25.675675675675688,"error":"","errorOccurred":false,"keysReleasedFlag":false,"success":true,"keyTappedEarlyFlag":false,"keysState":{"a":true,"w":true,"e":true," ":true,"arrowright":true},"trial_type":"task-plugin","trial_index":107,"plugin_version":"1.0","time_elapsed":766593,"medianTaps":{"calibrationPart1Median":29,"calibrationPart2Median":37}},{"errorOccurred":false,"trial_type":"release-keys","trial_index":108,"plugin_version":"1.0","time_elapsed":767206},{"task":"success","success":true,"trial_type":"success-screen-plugin","trial_index":109,"plugin_version":null,"time_elapsed":767708},{"trial_type":"html-keyboard-response","trial_index":111,"plugin_version":null,"time_elapsed":771142},{"task":"accept","reward":3,"bounds":[46.83925367481949,66.83925367481949],"originalBounds":[45,65],"delay":[0,0],"rt":1935,"stimulus":"\n<div\n  id=\"acceptance-container\"\n  style=\"display: flex; flex-direction: column; justify-content: center; align-items: center; height: 100%;\"\n>\n  <div\n    id=\"thermometer-container\"\n    style=\"display: flex; justify-content: center; align-items: center; height: 300px; width: 100px; border: 1px solid #000; margin-bottom: 10px; box-sizing: border-box;\"\n  >\n    <div\n      id=\"thermometer\"\n      style=\"position: relative; width: 100%; height: 100%; background-color: #e0e0e0; box-sizing: border-box;\"\n    >\n      <div\n        id=\"blue-area\"\n        style=\"position: absolute; bottom: 46.83925367481949%; height: 20%; width: 100%; background-color: blue;\"\n      ></div>\n      <div\n        id=\"lower-bound\"\n        style=\"position: absolute; bottom: 46.83925367481949%; width: 100%; height: 2px; background-color: black;\"\n      ></div>\n      <div\n        id=\"upper-bound\"\n        style=\"position: absolute; bottom: 66.83925367481949%; width: 100%; height: 2px; background-color: black;\"\n      ></div>\n    </div>\n  </div>\n  <p style=\"text-align: center;\">Reward:  3 points</p>\n  <p style=\"text-align: center;\"><br>Press the <b>Right Arrow</b> on your keyboard to accept the trial <svg class='right-arrow' style='width: 48px; height: 48px;'xmlns='http://www.w3.org/2000/svg' viewBox='0 0 16 16'><path fill-rule='evenodd' d='M10.146 4.646a.5.5 0 0 1 .708 0l2.646 2.647-2.646 2.646a.5.5 0 0 1-.708-.707L11.293 8H2a.5.5 0 0 1 0-1h9.293L10.146 5.354a.5.5 0 0 1 0-.708z'/></svg><br>or<br><svg class='left-arrow' style='width: 48px; height: 48px;' xmlns='http://www.w3.org/2000/svg' viewBox='0 0 16 16'><path fill-rule='evenodd' d='M5.854 4.646a.5.5 0 0 0-.708 0L2.5 7.293l2.646 2.647a.5.5 0 0 0 .708-.707L4.707 8H14a.5.5 0 0 0 0-1H4.707l1.147-1.146a.5.5 0 0 0 0-.708z'/></svg>Press the <b>Left Arrow</b> on your keyboard to skip the trial</p>\n</div>\n","response":"ArrowRight","trial_type":"html-keyboard-response","trial_index":113,"plugin_version":null,"time_elapsed":773079,"accepted":true},{"task":"countdown","keyTappedEarlyFlag":false,"trial_type":"countdown-trial","trial_index":114,"plugin_version":"1.0","time_elapsed":777577},{"blockType":"sync","task":"block","randomDelay":[0,0],"bounds":[46.83925367481949,66.83925367481949],"reward":3,"tapCount":28,"startTime":777577,"endTime":784580,"mercuryHeight":53.621621621621586,"error":"","errorOccurred":false,"keysReleasedFlag":false,"success":true,"keyTappedEarlyFlag":false,"keysState":{"a":true,"w":true,"e":true," ":true,"arrowright":true},"trial_type":"task-plugin","trial_index":115,"plugin_version":"1.0","time_elapsed":784580,"medianTaps":{"calibrationPart1Median":29,"calibrationPart2Median":37}},{"errorOccurred":false,"trial_type":"release-keys","trial_index":116,"plugin_version":"1.0","time_elapsed":785314},{"task":"success","success":true,"trial_type":"success-screen-plugin","trial_index":117,"plugin_version":null,"time_elapsed":785817},{"trial_type":"html-keyboard-response","trial_index":119,"plugin_version":null,"time_elapsed":788551},{"task":"accept","reward":25,"bounds":[66.40948203416123,86.40948203416123],"originalBounds":[70,90],"delay":[0,0],"rt":1558,"stimulus":"\n<div\n  id=\"acceptance-container\"\n  style=\"display: flex; flex-direction: column; justify-content: center; align-items: center; height: 100%;\"\n>\n  <div\n    id=\"thermometer-container\"\n    style=\"display: flex; justify-content: center; align-items: center; height: 300px; width: 100px; border: 1px solid #000; margin-bottom: 10px; box-sizing: border-box;\"\n  >\n    <div\n      id=\"thermometer\"\n      style=\"position: relative; width: 100%; height: 100%; background-color: #e0e0e0; box-sizing: border-box;\"\n    >\n      <div\n        id=\"blue-area\"\n        style=\"position: absolute; bottom: 66.40948203416123%; height: 20%; width: 100%; background-color: blue;\"\n      ></div>\n      <div\n        id=\"lower-bound\"\n        style=\"position: absolute; bottom: 66.40948203416123%; width: 100%; height: 2px; background-color: black;\"\n      ></div>\n      <div\n        id=\"upper-bound\"\n        style=\"position: absolute; bottom: 86.40948203416123%; width: 100%; height: 2px; background-color: black;\"\n      ></div>\n    </div>\n  </div>\n  <p style=\"text-align: center;\">Reward:  25 points</p>\n  <p style=\"text-align: center;\"><br>Press the <b>Right Arrow</b> on your keyboard to accept the trial <svg class='right-arrow' style='width: 48px; height: 48px;'xmlns='http://www.w3.org/2000/svg' viewBox='0 0 16 16'><path fill-rule='evenodd' d='M10.146 4.646a.5.5 0 0 1 .708 0l2.646 2.647-2.646 2.646a.5.5 0 0 1-.708-.707L11.293 8H2a.5.5 0 0 1 0-1h9.293L10.146 5.354a.5.5 0 0 1 0-.708z'/></svg><br>or<br><svg class='left-arrow' style='width: 48px; height: 48px;' xmlns='http://www.w3.org/2000/svg' viewBox='0 0 16 16'><path fill-rule='evenodd' d='M5.854 4.646a.5.5 0 0 0-.708 0L2.5 7.293l2.646 2.647a.5.5 0 0 0 .708-.707L4.707 8H14a.5.5 0 0 0 0-1H4.707l1.147-1.146a.5.5 0 0 0 0-.708z'/></svg>Press the <b>Left Arrow</b> on your keyboard to skip the trial</p>\n</div>\n","response":"ArrowRight","trial_type":"html-keyboard-response","trial_index":121,"plugin_version":null,"time_elapsed":790110,"accepted":true},{"blockType":"sync","task":"block","randomDelay":[0,0],"bounds":[66.40948203416123,86.40948203416123],"reward":25,"tapCount":0,"startTime":0,"endTime":0,"mercuryHeight":0,"error":"","errorOccurred":false,"keysReleasedFlag":false,"success":true,"keyTappedEarlyFlag":false,"keysState":{"a":true,"w":true,"e":true," ":true,"arrowright":true},"trial_type":"task-plugin","trial_index":122,"plugin_version":"1.0","time_elapsed":790111,"medianTaps":{"calibrationPart1Median":29,"calibrationPart2Median":37}},{"task":"success","success":true,"trial_type":"success-screen-plugin","trial_index":124,"plugin_version":null,"time_elapsed":790617},{"trial_type":"html-keyboard-response","trial_index":125,"plugin_version":null,"time_elapsed":790921},{"task":"accept","reward":10,"bounds":[18.622933862029026,38.62293386202903],"originalBounds":[20,40],"delay":[0,0],"rt":1619,"stimulus":"\n<div\n  id=\"acceptance-container\"\n  style=\"display: flex; flex-direction: column; justify-content: center; align-items: center; height: 100%;\"\n>\n  <div\n    id=\"thermometer-container\"\n    style=\"display: flex; justify-content: center; align-items: center; height: 300px; width: 100px; border: 1px solid #000; margin-bottom: 10px; box-sizing: border-box;\"\n  >\n    <div\n      id=\"thermometer\"\n      style=\"position: relative; width: 100%; height: 100%; background-color: #e0e0e0; box-sizing: border-box;\"\n    >\n      <div\n        id=\"blue-area\"\n        style=\"position: absolute; bottom: 18.622933862029026%; height: 20.000000000000004%; width: 100%; background-color: blue;\"\n      ></div>\n      <div\n        id=\"lower-bound\"\n        style=\"position: absolute; bottom: 18.622933862029026%; width: 100%; height: 2px; background-color: black;\"\n      ></div>\n      <div\n        id=\"upper-bound\"\n        style=\"position: absolute; bottom: 38.62293386202903%; width: 100%; height: 2px; background-color: black;\"\n      ></div>\n    </div>\n  </div>\n  <p style=\"text-align: center;\">Reward:  10 points</p>\n  <p style=\"text-align: center;\"><br>Press the <b>Right Arrow</b> on your keyboard to accept the trial <svg class='right-arrow' style='width: 48px; height: 48px;'xmlns='http://www.w3.org/2000/svg' viewBox='0 0 16 16'><path fill-rule='evenodd' d='M10.146 4.646a.5.5 0 0 1 .708 0l2.646 2.647-2.646 2.646a.5.5 0 0 1-.708-.707L11.293 8H2a.5.5 0 0 1 0-1h9.293L10.146 5.354a.5.5 0 0 1 0-.708z'/></svg><br>or<br><svg class='left-arrow' style='width: 48px; height: 48px;' xmlns='http://www.w3.org/2000/svg' viewBox='0 0 16 16'><path fill-rule='evenodd' d='M5.854 4.646a.5.5 0 0 0-.708 0L2.5 7.293l2.646 2.647a.5.5 0 0 0 .708-.707L4.707 8H14a.5.5 0 0 0 0-1H4.707l1.147-1.146a.5.5 0 0 0 0-.708z'/></svg>Press the <b>Left Arrow</b> on your keyboard to skip the trial</p>\n</div>\n","response":"ArrowRight","trial_type":"html-keyboard-response","trial_index":128,"plugin_version":null,"time_elapsed":792542,"accepted":true},{"blockType":"sync","task":"block","randomDelay":[0,0],"bounds":[18.622933862029026,38.62293386202903],"reward":10,"tapCount":0,"startTime":0,"endTime":0,"mercuryHeight":0,"error":"","errorOccurred":false,"keysReleasedFlag":false,"success":true,"keyTappedEarlyFlag":false,"keysState":{"a":true,"w":true,"e":true," ":true,"arrowright":true},"trial_type":"task-plugin","trial_index":129,"plugin_version":"1.0","time_elapsed":792543,"medianTaps":{"calibrationPart1Median":29,"calibrationPart2Median":37}},{"task":"success","success":true,"trial_type":"success-screen-plugin","trial_index":131,"plugin_version":null,"time_elapsed":793046},{"trial_type":"html-keyboard-response","trial_index":132,"plugin_version":null,"time_elapsed":793249},{"task":"accept","reward":1,"bounds":[64.14924140913104,84.14924140913104],"originalBounds":[70,90],"delay":[0,0],"rt":1844,"stimulus":"\n<div\n  id=\"acceptance-container\"\n  style=\"display: flex; flex-direction: column; justify-content: center; align-items: center; height: 100%;\"\n>\n  <div\n    id=\"thermometer-container\"\n    style=\"display: flex; justify-content: center; align-items: center; height: 300px; width: 100px; border: 1px solid #000; margin-bottom: 10px; box-sizing: border-box;\"\n  >\n    <div\n      id=\"thermometer\"\n      style=\"position: relative; width: 100%; height: 100%; background-color: #e0e0e0; box-sizing: border-box;\"\n    >\n      <div\n        id=\"blue-area\"\n        style=\"position: absolute; bottom: 64.14924140913104%; height: 20%; width: 100%; background-color: blue;\"\n      ></div>\n      <div\n        id=\"lower-bound\"\n        style=\"position: absolute; bottom: 64.14924140913104%; width: 100%; height: 2px; background-color: black;\"\n      ></div>\n      <div\n        id=\"upper-bound\"\n        style=\"position: absolute; bottom: 84.14924140913104%; width: 100%; height: 2px; background-color: black;\"\n      ></div>\n    </div>\n  </div>\n  <p style=\"text-align: center;\">Reward:  1 points</p>\n  <p style=\"text-align: center;\"><br>Press the <b>Right Arrow</b> on your keyboard to accept the trial <svg class='right-arrow' style='width: 48px; height: 48px;'xmlns='http://www.w3.org/2000/svg' viewBox='0 0 16 16'><path fill-rule='evenodd' d='M10.146 4.646a.5.5 0 0 1 .708 0l2.646 2.647-2.646 2.646a.5.5 0 0 1-.708-.707L11.293 8H2a.5.5 0 0 1 0-1h9.293L10.146 5.354a.5.5 0 0 1 0-.708z'/></svg><br>or<br><svg class='left-arrow' style='width: 48px; height: 48px;' xmlns='http://www.w3.org/2000/svg' viewBox='0 0 16 16'><path fill-rule='evenodd' d='M5.854 4.646a.5.5 0 0 0-.708 0L2.5 7.293l2.646 2.647a.5.5 0 0 0 .708-.707L4.707 8H14a.5.5 0 0 0 0-1H4.707l1.147-1.146a.5.5 0 0 0 0-.708z'/></svg>Press the <b>Left Arrow</b> on your keyboard to skip the trial</p>\n</div>\n","response":"ArrowRight","trial_type":"html-keyboard-response","trial_index":135,"plugin_version":null,"time_elapsed":795096,"accepted":true},{"blockType":"sync","task":"block","randomDelay":[0,0],"bounds":[64.14924140913104,84.14924140913104],"reward":1,"tapCount":0,"startTime":0,"endTime":0,"mercuryHeight":0,"error":"","errorOccurred":false,"keysReleasedFlag":false,"success":true,"keyTappedEarlyFlag":false,"keysState":{"a":true,"w":true,"e":true," ":true,"arrowright":true},"trial_type":"task-plugin","trial_index":136,"plugin_version":"1.0","time_elapsed":795097,"medianTaps":{"calibrationPart1Median":29,"calibrationPart2Median":37}},{"task":"success","success":true,"trial_type":"success-screen-plugin","trial_index":138,"plugin_version":null,"time_elapsed":795602},{"trial_type":"html-keyboard-response","trial_index":139,"plugin_version":null,"time_elapsed":795907},{"task":"accept","reward":9,"bounds":[73.4475717444137,93.4475717444137],"originalBounds":[70,90],"delay":[0,0],"rt":1875,"stimulus":"\n<div\n  id=\"acceptance-container\"\n  style=\"display: flex; flex-direction: column; justify-content: center; align-items: center; height: 100%;\"\n>\n  <div\n    id=\"thermometer-container\"\n    style=\"display: flex; justify-content: center; align-items: center; height: 300px; width: 100px; border: 1px solid #000; margin-bottom: 10px; box-sizing: border-box;\"\n  >\n    <div\n      id=\"thermometer\"\n      style=\"position: relative; width: 100%; height: 100%; background-color: #e0e0e0; box-sizing: border-box;\"\n    >\n      <div\n        id=\"blue-area\"\n        style=\"position: absolute; bottom: 73.4475717444137%; height: 20%; width: 100%; background-color: blue;\"\n      ></div>\n      <div\n        id=\"lower-bound\"\n        style=\"position: absolute; bottom: 73.4475717444137%; width: 100%; height: 2px; background-color: black;\"\n      ></div>\n      <div\n        id=\"upper-bound\"\n        style=\"position: absolute; bottom: 93.4475717444137%; width: 100%; height: 2px; background-color: black;\"\n      ></div>\n    </div>\n  </div>\n  <p style=\"text-align: center;\">Reward:  9 points</p>\n  <p style=\"text-align: center;\"><br>Press the <b>Right Arrow</b> on your keyboard to accept the trial <svg class='right-arrow' style='width: 48px; height: 48px;'xmlns='http://www.w3.org/2000/svg' viewBox='0 0 16 16'><path fill-rule='evenodd' d='M10.146 4.646a.5.5 0 0 1 .708 0l2.646 2.647-2.646 2.646a.5.5 0 0 1-.708-.707L11.293 8H2a.5.5 0 0 1 0-1h9.293L10.146 5.354a.5.5 0 0 1 0-.708z'/></svg><br>or<br><svg class='left-arrow' style='width: 48px; height: 48px;' xmlns='http://www.w3.org/2000/svg' viewBox='0 0 16 16'><path fill-rule='evenodd' d='M5.854 4.646a.5.5 0 0 0-.708 0L2.5 7.293l2.646 2.647a.5.5 0 0 0 .708-.707L4.707 8H14a.5.5 0 0 0 0-1H4.707l1.147-1.146a.5.5 0 0 0 0-.708z'/></svg>Press the <b>Left Arrow</b> on your keyboard to skip the trial</p>\n</div>\n","response":"ArrowRight","trial_type":"html-keyboard-response","trial_index":142,"plugin_version":null,"time_elapsed":797783,"accepted":true},{"blockType":"sync","task":"block","randomDelay":[0,0],"bounds":[73.4475717444137,93.4475717444137],"reward":9,"tapCount":0,"startTime":0,"endTime":0,"mercuryHeight":0,"error":"","errorOccurred":false,"keysReleasedFlag":false,"success":true,"keyTappedEarlyFlag":false,"keysState":{"a":true,"w":true,"e":true," ":true,"arrowright":true},"trial_type":"task-plugin","trial_index":143,"plugin_version":"1.0","time_elapsed":797785,"medianTaps":{"calibrationPart1Median":29,"calibrationPart2Median":37}},{"task":"success","success":true,"trial_type":"success-screen-plugin","trial_index":145,"plugin_version":null,"time_elapsed":798290},{"trial_type":"html-keyboard-response","trial_index":146,"plugin_version":null,"time_elapsed":798897},{"task":"accept","reward":24,"bounds":[71.80503466830427,91.80503466830427],"originalBounds":[70,90],"delay":[0,0],"rt":1132,"stimulus":"\n<div\n  id=\"acceptance-container\"\n  style=\"display: flex; flex-direction: column; justify-content: center; align-items: center; height: 100%;\"\n>\n  <div\n    id=\"thermometer-container\"\n    style=\"display: flex; justify-content: center; align-items: center; height: 300px; width: 100px; border: 1px solid #000; margin-bottom: 10px; box-sizing: border-box;\"\n  >\n    <div\n      id=\"thermometer\"\n      style=\"position: relative; width: 100%; height: 100%; background-color: #e0e0e0; box-sizing: border-box;\"\n    >\n      <div\n        id=\"blue-area\"\n        style=\"position: absolute; bottom: 71.80503466830427%; height: 20%; width: 100%; background-color: blue;\"\n      ></div>\n      <div\n        id=\"lower-bound\"\n        style=\"position: absolute; bottom: 71.80503466830427%; width: 100%; height: 2px; background-color: black;\"\n      ></div>\n      <div\n        id=\"upper-bound\"\n        style=\"position: absolute; bottom: 91.80503466830427%; width: 100%; height: 2px; background-color: black;\"\n      ></div>\n    </div>\n  </div>\n  <p style=\"text-align: center;\">Reward:  24 points</p>\n  <p style=\"text-align: center;\"><br>Press the <b>Right Arrow</b> on your keyboard to accept the trial <svg class='right-arrow' style='width: 48px; height: 48px;'xmlns='http://www.w3.org/2000/svg' viewBox='0 0 16 16'><path fill-rule='evenodd' d='M10.146 4.646a.5.5 0 0 1 .708 0l2.646 2.647-2.646 2.646a.5.5 0 0 1-.708-.707L11.293 8H2a.5.5 0 0 1 0-1h9.293L10.146 5.354a.5.5 0 0 1 0-.708z'/></svg><br>or<br><svg class='left-arrow' style='width: 48px; height: 48px;' xmlns='http://www.w3.org/2000/svg' viewBox='0 0 16 16'><path fill-rule='evenodd' d='M5.854 4.646a.5.5 0 0 0-.708 0L2.5 7.293l2.646 2.647a.5.5 0 0 0 .708-.707L4.707 8H14a.5.5 0 0 0 0-1H4.707l1.147-1.146a.5.5 0 0 0 0-.708z'/></svg>Press the <b>Left Arrow</b> on your keyboard to skip the trial</p>\n</div>\n","response":"ArrowRight","trial_type":"html-keyboard-response","trial_index":149,"plugin_version":null,"time_elapsed":800031,"accepted":true},{"task":"countdown","keyTappedEarlyFlag":false,"trial_type":"countdown-trial","trial_index":150,"plugin_version":"1.0","time_elapsed":804817},{"blockType":"sync","task":"block","randomDelay":[0,0],"bounds":[71.80503466830427,91.80503466830427],"reward":24,"tapCount":19,"startTime":804818,"endTime":809072,"mercuryHeight":49.24324324324323,"error":"You released the keys early!","errorOccurred":true,"keysReleasedFlag":true,"success":false,"keyTappedEarlyFlag":false,"keysState":{"a":true,"w":true,"e":true," ":true,"arrowright":true},"trial_type":"task-plugin","trial_index":151,"plugin_version":"1.0","time_elapsed":809072,"medianTaps":{"calibrationPart1Median":29,"calibrationPart2Median":37}},{"errorOccurred":false,"trial_type":"release-keys","trial_index":152,"plugin_version":"1.0","time_elapsed":810049},{"task":"success","success":false,"trial_type":"success-screen-plugin","trial_index":153,"plugin_version":null,"time_elapsed":810550},{"trial_type":"html-keyboard-response","trial_index":155,"plugin_version":null,"time_elapsed":813889},{"task":"accept","reward":3,"bounds":[21.648469259827316,41.648469259827316],"originalBounds":[20,40],"delay":[0,0],"rt":1333,"stimulus":"\n<div\n  id=\"acceptance-container\"\n  style=\"display: flex; flex-direction: column; justify-content: center; align-items: center; height: 100%;\"\n>\n  <div\n    id=\"thermometer-container\"\n    style=\"display: flex; justify-content: center; align-items: center; height: 300px; width: 100px; border: 1px solid #000; margin-bottom: 10px; box-sizing: border-box;\"\n  >\n    <div\n      id=\"thermometer\"\n      style=\"position: relative; width: 100%; height: 100%; background-color: #e0e0e0; box-sizing: border-box;\"\n    >\n      <div\n        id=\"blue-area\"\n        style=\"position: absolute; bottom: 21.648469259827316%; height: 20%; width: 100%; background-color: blue;\"\n      ></div>\n      <div\n        id=\"lower-bound\"\n        style=\"position: absolute; bottom: 21.648469259827316%; width: 100%; height: 2px; background-color: black;\"\n      ></div>\n      <div\n        id=\"upper-bound\"\n        style=\"position: absolute; bottom: 41.648469259827316%; width: 100%; height: 2px; background-color: black;\"\n      ></div>\n    </div>\n  </div>\n  <p style=\"text-align: center;\">Reward:  3 points</p>\n  <p style=\"text-align: center;\"><br>Press the <b>Right Arrow</b> on your keyboard to accept the trial <svg class='right-arrow' style='width: 48px; height: 48px;'xmlns='http://www.w3.org/2000/svg' viewBox='0 0 16 16'><path fill-rule='evenodd' d='M10.146 4.646a.5.5 0 0 1 .708 0l2.646 2.647-2.646 2.646a.5.5 0 0 1-.708-.707L11.293 8H2a.5.5 0 0 1 0-1h9.293L10.146 5.354a.5.5 0 0 1 0-.708z'/></svg><br>or<br><svg class='left-arrow' style='width: 48px; height: 48px;' xmlns='http://www.w3.org/2000/svg' viewBox='0 0 16 16'><path fill-rule='evenodd' d='M5.854 4.646a.5.5 0 0 0-.708 0L2.5 7.293l2.646 2.647a.5.5 0 0 0 .708-.707L4.707 8H14a.5.5 0 0 0 0-1H4.707l1.147-1.146a.5.5 0 0 0 0-.708z'/></svg>Press the <b>Left Arrow</b> on your keyboard to skip the trial</p>\n</div>\n","response":"ArrowRight","trial_type":"html-keyboard-response","trial_index":157,"plugin_version":null,"time_elapsed":815224,"accepted":true},{"blockType":"sync","task":"block","randomDelay":[0,0],"bounds":[21.648469259827316,41.648469259827316],"reward":3,"tapCount":0,"startTime":0,"endTime":0,"mercuryHeight":0,"error":"","errorOccurred":false,"keysReleasedFlag":false,"success":true,"keyTappedEarlyFlag":false,"keysState":{"a":true,"w":true,"e":true," ":true,"arrowright":true},"trial_type":"task-plugin","trial_index":158,"plugin_version":"1.0","time_elapsed":815225,"medianTaps":{"calibrationPart1Median":29,"calibrationPart2Median":37}},{"task":"success","success":true,"trial_type":"success-screen-plugin","trial_index":160,"plugin_version":null,"time_elapsed":815731},{"trial_type":"html-keyboard-response","trial_index":161,"plugin_version":null,"time_elapsed":815935},{"task":"accept","reward":26,"bounds":[47.92828999187942,67.92828999187941],"originalBounds":[45,65],"delay":[0,0],"rt":894,"stimulus":"\n<div\n  id=\"acceptance-container\"\n  style=\"display: flex; flex-direction: column; justify-content: center; align-items: center; height: 100%;\"\n>\n  <div\n    id=\"thermometer-container\"\n    style=\"display: flex; justify-content: center; align-items: center; height: 300px; width: 100px; border: 1px solid #000; margin-bottom: 10px; box-sizing: border-box;\"\n  >\n    <div\n      id=\"thermometer\"\n      style=\"position: relative; width: 100%; height: 100%; background-color: #e0e0e0; box-sizing: border-box;\"\n    >\n      <div\n        id=\"blue-area\"\n        style=\"position: absolute; bottom: 47.92828999187942%; height: 19.999999999999993%; width: 100%; background-color: blue;\"\n      ></div>\n      <div\n        id=\"lower-bound\"\n        style=\"position: absolute; bottom: 47.92828999187942%; width: 100%; height: 2px; background-color: black;\"\n      ></div>\n      <div\n        id=\"upper-bound\"\n        style=\"position: absolute; bottom: 67.92828999187941%; width: 100%; height: 2px; background-color: black;\"\n      ></div>\n    </div>\n  </div>\n  <p style=\"text-align: center;\">Reward:  26 points</p>\n  <p style=\"text-align: center;\"><br>Press the <b>Right Arrow</b> on your keyboard to accept the trial <svg class='right-arrow' style='width: 48px; height: 48px;'xmlns='http://www.w3.org/2000/svg' viewBox='0 0 16 16'><path fill-rule='evenodd' d='M10.146 4.646a.5.5 0 0 1 .708 0l2.646 2.647-2.646 2.646a.5.5 0 0 1-.708-.707L11.293 8H2a.5.5 0 0 1 0-1h9.293L10.146 5.354a.5.5 0 0 1 0-.708z'/></svg><br>or<br><svg class='left-arrow' style='width: 48px; height: 48px;' xmlns='http://www.w3.org/2000/svg' viewBox='0 0 16 16'><path fill-rule='evenodd' d='M5.854 4.646a.5.5 0 0 0-.708 0L2.5 7.293l2.646 2.647a.5.5 0 0 0 .708-.707L4.707 8H14a.5.5 0 0 0 0-1H4.707l1.147-1.146a.5.5 0 0 0 0-.708z'/></svg>Press the <b>Left Arrow</b> on your keyboard to skip the trial</p>\n</div>\n","response":"ArrowRight","trial_type":"html-keyboard-response","trial_index":164,"plugin_version":null,"time_elapsed":816832,"accepted":true},{"task":"countdown","keyTappedEarlyFlag":false,"trial_type":"countdown-trial","trial_index":165,"plugin_version":"1.0","time_elapsed":821448},{"blockType":"sync","task":"block","randomDelay":[0,0],"bounds":[47.92828999187942,67.92828999187941],"reward":26,"tapCount":30,"startTime":821449,"endTime":828450,"mercuryHeight":64.59459459459457,"error":"","errorOccurred":false,"keysReleasedFlag":false,"success":true,"keyTappedEarlyFlag":false,"keysState":{"a":true,"w":true,"e":true," ":true,"arrowright":true},"trial_type":"task-plugin","trial_index":166,"plugin_version":"1.0","time_elapsed":828451,"medianTaps":{"calibrationPart1Median":29,"calibrationPart2Median":37}},{"errorOccurred":false,"trial_type":"release-keys","trial_index":167,"plugin_version":"1.0","time_elapsed":829400},{"task":"success","success":true,"trial_type":"success-screen-plugin","trial_index":168,"plugin_version":null,"time_elapsed":829901},{"trial_type":"html-keyboard-response","trial_index":170,"plugin_version":null,"time_elapsed":832938},{"task":"accept","reward":3,"bounds":[66.93803161729238,86.93803161729238],"originalBounds":[70,90],"delay":[0,0],"rt":1508,"stimulus":"\n<div\n  id=\"acceptance-container\"\n  style=\"display: flex; flex-direction: column; justify-content: center; align-items: center; height: 100%;\"\n>\n  <div\n    id=\"thermometer-container\"\n    style=\"display: flex; justify-content: center; align-items: center; height: 300px; width: 100px; border: 1px solid #000; margin-bottom: 10px; box-sizing: border-box;\"\n  >\n    <div\n      id=\"thermometer\"\n      style=\"position: relative; width: 100%; height: 100%; background-color: #e0e0e0; box-sizing: border-box;\"\n    >\n      <div\n        id=\"blue-area\"\n        style=\"position: absolute; bottom: 66.93803161729238%; height: 20%; width: 100%; background-color: blue;\"\n      ></div>\n      <div\n        id=\"lower-bound\"\n        style=\"position: absolute; bottom: 66.93803161729238%; width: 100%; height: 2px; background-color: black;\"\n      ></div>\n      <div\n        id=\"upper-bound\"\n        style=\"position: absolute; bottom: 86.93803161729238%; width: 100%; height: 2px; background-color: black;\"\n      ></div>\n    </div>\n  </div>\n  <p style=\"text-align: center;\">Reward:  3 points</p>\n  <p style=\"text-align: center;\"><br>Press the <b>Right Arrow</b> on your keyboard to accept the trial <svg class='right-arrow' style='width: 48px; height: 48px;'xmlns='http://www.w3.org/2000/svg' viewBox='0 0 16 16'><path fill-rule='evenodd' d='M10.146 4.646a.5.5 0 0 1 .708 0l2.646 2.647-2.646 2.646a.5.5 0 0 1-.708-.707L11.293 8H2a.5.5 0 0 1 0-1h9.293L10.146 5.354a.5.5 0 0 1 0-.708z'/></svg><br>or<br><svg class='left-arrow' style='width: 48px; height: 48px;' xmlns='http://www.w3.org/2000/svg' viewBox='0 0 16 16'><path fill-rule='evenodd' d='M5.854 4.646a.5.5 0 0 0-.708 0L2.5 7.293l2.646 2.647a.5.5 0 0 0 .708-.707L4.707 8H14a.5.5 0 0 0 0-1H4.707l1.147-1.146a.5.5 0 0 0 0-.708z'/></svg>Press the <b>Left Arrow</b> on your keyboard to skip the trial</p>\n</div>\n","response":"ArrowRight","trial_type":"html-keyboard-response","trial_index":172,"plugin_version":null,"time_elapsed":834448,"accepted":true},{"blockType":"sync","task":"block","randomDelay":[0,0],"bounds":[66.93803161729238,86.93803161729238],"reward":3,"tapCount":0,"startTime":0,"endTime":0,"mercuryHeight":0,"error":"","errorOccurred":false,"keysReleasedFlag":false,"success":true,"keyTappedEarlyFlag":false,"keysState":{"a":true,"w":true,"e":true," ":true,"arrowright":true},"trial_type":"task-plugin","trial_index":173,"plugin_version":"1.0","time_elapsed":834450,"medianTaps":{"calibrationPart1Median":29,"calibrationPart2Median":37}},{"task":"success","success":true,"trial_type":"success-screen-plugin","trial_index":175,"plugin_version":null,"time_elapsed":834956},{"trial_type":"html-keyboard-response","trial_index":176,"plugin_version":null,"time_elapsed":835361},{"task":"accept","reward":11,"bounds":[72.63412776077226,92.63412776077226],"originalBounds":[70,90],"delay":[0,0],"rt":1605,"stimulus":"\n<div\n  id=\"acceptance-container\"\n  style=\"display: flex; flex-direction: column; justify-content: center; align-items: center; height: 100%;\"\n>\n  <div\n    id=\"thermometer-container\"\n    style=\"display: flex; justify-content: center; align-items: center; height: 300px; width: 100px; border: 1px solid #000; margin-bottom: 10px; box-sizing: border-box;\"\n  >\n    <div\n      id=\"thermometer\"\n      style=\"position: relative; width: 100%; height: 100%; background-color: #e0e0e0; box-sizing: border-box;\"\n    >\n      <div\n        id=\"blue-area\"\n        style=\"position: absolute; bottom: 72.63412776077226%; height: 20%; width: 100%; background-color: blue;\"\n      ></div>\n      <div\n        id=\"lower-bound\"\n        style=\"position: absolute; bottom: 72.63412776077226%; width: 100%; height: 2px; background-color: black;\"\n      ></div>\n      <div\n        id=\"upper-bound\"\n        style=\"position: absolute; bottom: 92.63412776077226%; width: 100%; height: 2px; background-color: black;\"\n      ></div>\n    </div>\n  </div>\n  <p style=\"text-align: center;\">Reward:  11 points</p>\n  <p style=\"text-align: center;\"><br>Press the <b>Right Arrow</b> on your keyboard to accept the trial <svg class='right-arrow' style='width: 48px; height: 48px;'xmlns='http://www.w3.org/2000/svg' viewBox='0 0 16 16'><path fill-rule='evenodd' d='M10.146 4.646a.5.5 0 0 1 .708 0l2.646 2.647-2.646 2.646a.5.5 0 0 1-.708-.707L11.293 8H2a.5.5 0 0 1 0-1h9.293L10.146 5.354a.5.5 0 0 1 0-.708z'/></svg><br>or<br><svg class='left-arrow' style='width: 48px; height: 48px;' xmlns='http://www.w3.org/2000/svg' viewBox='0 0 16 16'><path fill-rule='evenodd' d='M5.854 4.646a.5.5 0 0 0-.708 0L2.5 7.293l2.646 2.647a.5.5 0 0 0 .708-.707L4.707 8H14a.5.5 0 0 0 0-1H4.707l1.147-1.146a.5.5 0 0 0 0-.708z'/></svg>Press the <b>Left Arrow</b> on your keyboard to skip the trial</p>\n</div>\n","response":"ArrowRight","trial_type":"html-keyboard-response","trial_index":179,"plugin_version":null,"time_elapsed":836968,"accepted":true},{"blockType":"sync","task":"block","randomDelay":[0,0],"bounds":[72.63412776077226,92.63412776077226],"reward":11,"tapCount":0,"startTime":0,"endTime":0,"mercuryHeight":0,"error":"","errorOccurred":false,"keysReleasedFlag":false,"success":true,"keyTappedEarlyFlag":false,"keysState":{"a":true,"w":true,"e":true," ":true,"arrowright":true},"trial_type":"task-plugin","trial_index":180,"plugin_version":"1.0","time_elapsed":836970,"medianTaps":{"calibrationPart1Median":29,"calibrationPart2Median":37}},{"task":"success","success":true,"trial_type":"success-screen-plugin","trial_index":182,"plugin_version":null,"time_elapsed":837475},{"trial_type":"html-keyboard-response","trial_index":183,"plugin_version":null,"time_elapsed":837780},{"task":"accept","reward":9,"bounds":[22.191374659251608,42.19137465925161],"originalBounds":[20,40],"delay":[0,0],"rt":1040,"stimulus":"\n<div\n  id=\"acceptance-container\"\n  style=\"display: flex; flex-direction: column; justify-content: center; align-items: center; height: 100%;\"\n>\n  <div\n    id=\"thermometer-container\"\n    style=\"display: flex; justify-content: center; align-items: center; height: 300px; width: 100px; border: 1px solid #000; margin-bottom: 10px; box-sizing: border-box;\"\n  >\n    <div\n      id=\"thermometer\"\n      style=\"position: relative; width: 100%; height: 100%; background-color: #e0e0e0; box-sizing: border-box;\"\n    >\n      <div\n        id=\"blue-area\"\n        style=\"position: absolute; bottom: 22.191374659251608%; height: 20%; width: 100%; background-color: blue;\"\n      ></div>\n      <div\n        id=\"lower-bound\"\n        style=\"position: absolute; bottom: 22.191374659251608%; width: 100%; height: 2px; background-color: black;\"\n      ></div>\n      <div\n        id=\"upper-bound\"\n        style=\"position: absolute; bottom: 42.19137465925161%; width: 100%; height: 2px; background-color: black;\"\n      ></div>\n    </div>\n  </div>\n  <p style=\"text-align: center;\">Reward:  9 points</p>\n  <p style=\"text-align: center;\"><br>Press the <b>Right Arrow</b> on your keyboard to accept the trial <svg class='right-arrow' style='width: 48px; height: 48px;'xmlns='http://www.w3.org/2000/svg' viewBox='0 0 16 16'><path fill-rule='evenodd' d='M10.146 4.646a.5.5 0 0 1 .708 0l2.646 2.647-2.646 2.646a.5.5 0 0 1-.708-.707L11.293 8H2a.5.5 0 0 1 0-1h9.293L10.146 5.354a.5.5 0 0 1 0-.708z'/></svg><br>or<br><svg class='left-arrow' style='width: 48px; height: 48px;' xmlns='http://www.w3.org/2000/svg' viewBox='0 0 16 16'><path fill-rule='evenodd' d='M5.854 4.646a.5.5 0 0 0-.708 0L2.5 7.293l2.646 2.647a.5.5 0 0 0 .708-.707L4.707 8H14a.5.5 0 0 0 0-1H4.707l1.147-1.146a.5.5 0 0 0 0-.708z'/></svg>Press the <b>Left Arrow</b> on your keyboard to skip the trial</p>\n</div>\n","response":"ArrowRight","trial_type":"html-keyboard-response","trial_index":186,"plugin_version":null,"time_elapsed":838821,"accepted":true},{"blockType":"sync","task":"block","randomDelay":[0,0],"bounds":[22.191374659251608,42.19137465925161],"reward":9,"tapCount":0,"startTime":0,"endTime":0,"mercuryHeight":0,"error":"","errorOccurred":false,"keysReleasedFlag":false,"success":true,"keyTappedEarlyFlag":false,"keysState":{"a":true,"w":true,"e":true," ":true,"arrowright":true},"trial_type":"task-plugin","trial_index":187,"plugin_version":"1.0","time_elapsed":838822,"medianTaps":{"calibrationPart1Median":29,"calibrationPart2Median":37}},{"task":"success","success":true,"trial_type":"success-screen-plugin","trial_index":189,"plugin_version":null,"time_elapsed":839325},{"trial_type":"html-keyboard-response","trial_index":190,"plugin_version":null,"time_elapsed":839731},{"task":"accept","reward":2,"bounds":[43.84609989208797,63.84609989208797],"originalBounds":[45,65],"delay":[0,0],"rt":1195,"stimulus":"\n<div\n  id=\"acceptance-container\"\n  style=\"display: flex; flex-direction: column; justify-content: center; align-items: center; height: 100%;\"\n>\n  <div\n    id=\"thermometer-container\"\n    style=\"display: flex; justify-content: center; align-items: center; height: 300px; width: 100px; border: 1px solid #000; margin-bottom: 10px; box-sizing: border-box;\"\n  >\n    <div\n      id=\"thermometer\"\n      style=\"position: relative; width: 100%; height: 100%; background-color: #e0e0e0; box-sizing: border-box;\"\n    >\n      <div\n        id=\"blue-area\"\n        style=\"position: absolute; bottom: 43.84609989208797%; height: 20%; width: 100%; background-color: blue;\"\n      ></div>\n      <div\n        id=\"lower-bound\"\n        style=\"position: absolute; bottom: 43.84609989208797%; width: 100%; height: 2px; background-color: black;\"\n      ></div>\n      <div\n        id=\"upper-bound\"\n        style=\"position: absolute; bottom: 63.84609989208797%; width: 100%; height: 2px; background-color: black;\"\n      ></div>\n    </div>\n  </div>\n  <p style=\"text-align: center;\">Reward:  2 points</p>\n  <p style=\"text-align: center;\"><br>Press the <b>Right Arrow</b> on your keyboard to accept the trial <svg class='right-arrow' style='width: 48px; height: 48px;'xmlns='http://www.w3.org/2000/svg' viewBox='0 0 16 16'><path fill-rule='evenodd' d='M10.146 4.646a.5.5 0 0 1 .708 0l2.646 2.647-2.646 2.646a.5.5 0 0 1-.708-.707L11.293 8H2a.5.5 0 0 1 0-1h9.293L10.146 5.354a.5.5 0 0 1 0-.708z'/></svg><br>or<br><svg class='left-arrow' style='width: 48px; height: 48px;' xmlns='http://www.w3.org/2000/svg' viewBox='0 0 16 16'><path fill-rule='evenodd' d='M5.854 4.646a.5.5 0 0 0-.708 0L2.5 7.293l2.646 2.647a.5.5 0 0 0 .708-.707L4.707 8H14a.5.5 0 0 0 0-1H4.707l1.147-1.146a.5.5 0 0 0 0-.708z'/></svg>Press the <b>Left Arrow</b> on your keyboard to skip the trial</p>\n</div>\n","response":"ArrowRight","trial_type":"html-keyboard-response","trial_index":193,"plugin_version":null,"time_elapsed":840928,"accepted":true},{"blockType":"sync","task":"block","randomDelay":[0,0],"bounds":[43.84609989208797,63.84609989208797],"reward":2,"tapCount":0,"startTime":0,"endTime":0,"mercuryHeight":0,"error":"","errorOccurred":false,"keysReleasedFlag":false,"success":true,"keyTappedEarlyFlag":false,"keysState":{"a":true,"w":true,"e":true," ":true,"arrowright":true},"trial_type":"task-plugin","trial_index":194,"plugin_version":"1.0","time_elapsed":840929,"medianTaps":{"calibrationPart1Median":29,"calibrationPart2Median":37}},{"task":"success","success":true,"trial_type":"success-screen-plugin","trial_index":196,"plugin_version":null,"time_elapsed":841435},{"trial_type":"html-keyboard-response","trial_index":197,"plugin_version":null,"time_elapsed":841842},{"task":"accept","reward":26,"bounds":[17.550685117676913,37.55068511767691],"originalBounds":[20,40],"delay":[0,0],"rt":932,"stimulus":"\n<div\n  id=\"acceptance-container\"\n  style=\"display: flex; flex-direction: column; justify-content: center; align-items: center; height: 100%;\"\n>\n  <div\n    id=\"thermometer-container\"\n    style=\"display: flex; justify-content: center; align-items: center; height: 300px; width: 100px; border: 1px solid #000; margin-bottom: 10px; box-sizing: border-box;\"\n  >\n    <div\n      id=\"thermometer\"\n      style=\"position: relative; width: 100%; height: 100%; background-color: #e0e0e0; box-sizing: border-box;\"\n    >\n      <div\n        id=\"blue-area\"\n        style=\"position: absolute; bottom: 17.550685117676913%; height: 20%; width: 100%; background-color: blue;\"\n      ></div>\n      <div\n        id=\"lower-bound\"\n        style=\"position: absolute; bottom: 17.550685117676913%; width: 100%; height: 2px; background-color: black;\"\n      ></div>\n      <div\n        id=\"upper-bound\"\n        style=\"position: absolute; bottom: 37.55068511767691%; width: 100%; height: 2px; background-color: black;\"\n      ></div>\n    </div>\n  </div>\n  <p style=\"text-align: center;\">Reward:  26 points</p>\n  <p style=\"text-align: center;\"><br>Press the <b>Right Arrow</b> on your keyboard to accept the trial <svg class='right-arrow' style='width: 48px; height: 48px;'xmlns='http://www.w3.org/2000/svg' viewBox='0 0 16 16'><path fill-rule='evenodd' d='M10.146 4.646a.5.5 0 0 1 .708 0l2.646 2.647-2.646 2.646a.5.5 0 0 1-.708-.707L11.293 8H2a.5.5 0 0 1 0-1h9.293L10.146 5.354a.5.5 0 0 1 0-.708z'/></svg><br>or<br><svg class='left-arrow' style='width: 48px; height: 48px;' xmlns='http://www.w3.org/2000/svg' viewBox='0 0 16 16'><path fill-rule='evenodd' d='M5.854 4.646a.5.5 0 0 0-.708 0L2.5 7.293l2.646 2.647a.5.5 0 0 0 .708-.707L4.707 8H14a.5.5 0 0 0 0-1H4.707l1.147-1.146a.5.5 0 0 0 0-.708z'/></svg>Press the <b>Left Arrow</b> on your keyboard to skip the trial</p>\n</div>\n","response":"ArrowRight","trial_type":"html-keyboard-response","trial_index":200,"plugin_version":null,"time_elapsed":842776,"accepted":true},{"blockType":"sync","task":"block","randomDelay":[0,0],"bounds":[17.550685117676913,37.55068511767691],"reward":26,"tapCount":0,"startTime":0,"endTime":0,"mercuryHeight":0,"error":"","errorOccurred":false,"keysReleasedFlag":false,"success":true,"keyTappedEarlyFlag":false,"keysState":{"a":true,"w":true,"e":true," ":true,"arrowright":true},"trial_type":"task-plugin","trial_index":201,"plugin_version":"1.0","time_elapsed":842777,"medianTaps":{"calibrationPart1Median":29,"calibrationPart2Median":37}},{"task":"success","success":true,"trial_type":"success-screen-plugin","trial_index":203,"plugin_version":null,"time_elapsed":843283},{"trial_type":"html-keyboard-response","trial_index":204,"plugin_version":null,"time_elapsed":843588},{"task":"accept","reward":9,"bounds":[48.5405251216042,68.54052512160419],"originalBounds":[45,65],"delay":[0,0],"rt":2018,"stimulus":"\n<div\n  id=\"acceptance-container\"\n  style=\"display: flex; flex-direction: column; justify-content: center; align-items: center; height: 100%;\"\n>\n  <div\n    id=\"thermometer-container\"\n    style=\"display: flex; justify-content: center; align-items: center; height: 300px; width: 100px; border: 1px solid #000; margin-bottom: 10px; box-sizing: border-box;\"\n  >\n    <div\n      id=\"thermometer\"\n      style=\"position: relative; width: 100%; height: 100%; background-color: #e0e0e0; box-sizing: border-box;\"\n    >\n      <div\n        id=\"blue-area\"\n        style=\"position: absolute; bottom: 48.5405251216042%; height: 19.999999999999993%; width: 100%; background-color: blue;\"\n      ></div>\n      <div\n        id=\"lower-bound\"\n        style=\"position: absolute; bottom: 48.5405251216042%; width: 100%; height: 2px; background-color: black;\"\n      ></div>\n      <div\n        id=\"upper-bound\"\n        style=\"position: absolute; bottom: 68.54052512160419%; width: 100%; height: 2px; background-color: black;\"\n      ></div>\n    </div>\n  </div>\n  <p style=\"text-align: center;\">Reward:  9 points</p>\n  <p style=\"text-align: center;\"><br>Press the <b>Right Arrow</b> on your keyboard to accept the trial <svg class='right-arrow' style='width: 48px; height: 48px;'xmlns='http://www.w3.org/2000/svg' viewBox='0 0 16 16'><path fill-rule='evenodd' d='M10.146 4.646a.5.5 0 0 1 .708 0l2.646 2.647-2.646 2.646a.5.5 0 0 1-.708-.707L11.293 8H2a.5.5 0 0 1 0-1h9.293L10.146 5.354a.5.5 0 0 1 0-.708z'/></svg><br>or<br><svg class='left-arrow' style='width: 48px; height: 48px;' xmlns='http://www.w3.org/2000/svg' viewBox='0 0 16 16'><path fill-rule='evenodd' d='M5.854 4.646a.5.5 0 0 0-.708 0L2.5 7.293l2.646 2.647a.5.5 0 0 0 .708-.707L4.707 8H14a.5.5 0 0 0 0-1H4.707l1.147-1.146a.5.5 0 0 0 0-.708z'/></svg>Press the <b>Left Arrow</b> on your keyboard to skip the trial</p>\n</div>\n","response":"ArrowRight","trial_type":"html-keyboard-response","trial_index":207,"plugin_version":null,"time_elapsed":845608,"accepted":true},{"task":"countdown","keyTappedEarlyFlag":false,"trial_type":"countdown-trial","trial_index":208,"plugin_version":"1.0","time_elapsed":851106},{"blockType":"sync","task":"block","randomDelay":[0,0],"bounds":[48.5405251216042,68.54052512160419],"reward":9,"tapCount":29,"startTime":851108,"endTime":858109,"mercuryHeight":60.10810810810807,"error":"","errorOccurred":false,"keysReleasedFlag":false,"success":true,"keyTappedEarlyFlag":false,"keysState":{"a":true,"w":true,"e":true," ":true,"arrowright":true},"trial_type":"task-plugin","trial_index":209,"plugin_version":"1.0","time_elapsed":858110,"medianTaps":{"calibrationPart1Median":29,"calibrationPart2Median":37}},{"errorOccurred":false,"trial_type":"release-keys","trial_index":210,"plugin_version":"1.0","time_elapsed":858827},{"task":"success","success":true,"trial_type":"success-screen-plugin","trial_index":211,"plugin_version":null,"time_elapsed":859328},{"trial_type":"html-keyboard-response","trial_index":213,"plugin_version":null,"time_elapsed":862465},{"task":"accept","reward":11,"bounds":[24.06885760050322,44.06885760050322],"originalBounds":[20,40],"delay":[0,0],"rt":1558,"stimulus":"\n<div\n  id=\"acceptance-container\"\n  style=\"display: flex; flex-direction: column; justify-content: center; align-items: center; height: 100%;\"\n>\n  <div\n    id=\"thermometer-container\"\n    style=\"display: flex; justify-content: center; align-items: center; height: 300px; width: 100px; border: 1px solid #000; margin-bottom: 10px; box-sizing: border-box;\"\n  >\n    <div\n      id=\"thermometer\"\n      style=\"position: relative; width: 100%; height: 100%; background-color: #e0e0e0; box-sizing: border-box;\"\n    >\n      <div\n        id=\"blue-area\"\n        style=\"position: absolute; bottom: 24.06885760050322%; height: 20%; width: 100%; background-color: blue;\"\n      ></div>\n      <div\n        id=\"lower-bound\"\n        style=\"position: absolute; bottom: 24.06885760050322%; width: 100%; height: 2px; background-color: black;\"\n      ></div>\n      <div\n        id=\"upper-bound\"\n        style=\"position: absolute; bottom: 44.06885760050322%; width: 100%; height: 2px; background-color: black;\"\n      ></div>\n    </div>\n  </div>\n  <p style=\"text-align: center;\">Reward:  11 points</p>\n  <p style=\"text-align: center;\"><br>Press the <b>Right Arrow</b> on your keyboard to accept the trial <svg class='right-arrow' style='width: 48px; height: 48px;'xmlns='http://www.w3.org/2000/svg' viewBox='0 0 16 16'><path fill-rule='evenodd' d='M10.146 4.646a.5.5 0 0 1 .708 0l2.646 2.647-2.646 2.646a.5.5 0 0 1-.708-.707L11.293 8H2a.5.5 0 0 1 0-1h9.293L10.146 5.354a.5.5 0 0 1 0-.708z'/></svg><br>or<br><svg class='left-arrow' style='width: 48px; height: 48px;' xmlns='http://www.w3.org/2000/svg' viewBox='0 0 16 16'><path fill-rule='evenodd' d='M5.854 4.646a.5.5 0 0 0-.708 0L2.5 7.293l2.646 2.647a.5.5 0 0 0 .708-.707L4.707 8H14a.5.5 0 0 0 0-1H4.707l1.147-1.146a.5.5 0 0 0 0-.708z'/></svg>Press the <b>Left Arrow</b> on your keyboard to skip the trial</p>\n</div>\n","response":"ArrowRight","trial_type":"html-keyboard-response","trial_index":215,"plugin_version":null,"time_elapsed":864024,"accepted":true},{"task":"countdown","keyTappedEarlyFlag":false,"trial_type":"countdown-trial","trial_index":216,"plugin_version":"1.0","time_elapsed":868906},{"blockType":"sync","task":"block","randomDelay":[0,0],"bounds":[24.06885760050322,44.06885760050322],"reward":11,"tapCount":26,"startTime":868907,"endTime":875909,"mercuryHeight":36.64864864864862,"error":"","errorOccurred":false,"keysReleasedFlag":false,"success":true,"keyTappedEarlyFlag":false,"keysState":{"a":true,"w":true,"e":true," ":true,"arrowright":true},"trial_type":"task-plugin","trial_index":217,"plugin_version":"1.0","time_elapsed":875909,"medianTaps":{"calibrationPart1Median":29,"calibrationPart2Median":37}},{"errorOccurred":false,"trial_type":"release-keys","trial_index":218,"plugin_version":"1.0","time_elapsed":876720},{"task":"success","success":true,"trial_type":"success-screen-plugin","trial_index":219,"plugin_version":null,"time_elapsed":877223},{"trial_type":"html-keyboard-response","trial_index":221,"plugin_version":null,"time_elapsed":880564},{"task":"accept","reward":26,"bounds":[16.93632154542356,36.93632154542356],"originalBounds":[20,40],"delay":[0,0],"rt":747,"stimulus":"\n<div\n  id=\"acceptance-container\"\n  style=\"display: flex; flex-direction: column; justify-content: center; align-items: center; height: 100%;\"\n>\n  <div\n    id=\"thermometer-container\"\n    style=\"display: flex; justify-content: center; align-items: center; height: 300px; width: 100px; border: 1px solid #000; margin-bottom: 10px; box-sizing: border-box;\"\n  >\n    <div\n      id=\"thermometer\"\n      style=\"position: relative; width: 100%; height: 100%; background-color: #e0e0e0; box-sizing: border-box;\"\n    >\n      <div\n        id=\"blue-area\"\n        style=\"position: absolute; bottom: 16.93632154542356%; height: 20%; width: 100%; background-color: blue;\"\n      ></div>\n      <div\n        id=\"lower-bound\"\n        style=\"position: absolute; bottom: 16.93632154542356%; width: 100%; height: 2px; background-color: black;\"\n      ></div>\n      <div\n        id=\"upper-bound\"\n        style=\"position: absolute; bottom: 36.93632154542356%; width: 100%; height: 2px; background-color: black;\"\n      ></div>\n    </div>\n  </div>\n  <p style=\"text-align: center;\">Reward:  26 points</p>\n  <p style=\"text-align: center;\"><br>Press the <b>Right Arrow</b> on your keyboard to accept the trial <svg class='right-arrow' style='width: 48px; height: 48px;'xmlns='http://www.w3.org/2000/svg' viewBox='0 0 16 16'><path fill-rule='evenodd' d='M10.146 4.646a.5.5 0 0 1 .708 0l2.646 2.647-2.646 2.646a.5.5 0 0 1-.708-.707L11.293 8H2a.5.5 0 0 1 0-1h9.293L10.146 5.354a.5.5 0 0 1 0-.708z'/></svg><br>or<br><svg class='left-arrow' style='width: 48px; height: 48px;' xmlns='http://www.w3.org/2000/svg' viewBox='0 0 16 16'><path fill-rule='evenodd' d='M5.854 4.646a.5.5 0 0 0-.708 0L2.5 7.293l2.646 2.647a.5.5 0 0 0 .708-.707L4.707 8H14a.5.5 0 0 0 0-1H4.707l1.147-1.146a.5.5 0 0 0 0-.708z'/></svg>Press the <b>Left Arrow</b> on your keyboard to skip the trial</p>\n</div>\n","response":"ArrowRight","trial_type":"html-keyboard-response","trial_index":223,"plugin_version":null,"time_elapsed":881313,"accepted":true},{"blockType":"sync","task":"block","randomDelay":[0,0],"bounds":[16.93632154542356,36.93632154542356],"reward":26,"tapCount":0,"startTime":0,"endTime":0,"mercuryHeight":0,"error":"","errorOccurred":false,"keysReleasedFlag":false,"success":true,"keyTappedEarlyFlag":false,"keysState":{"a":true,"w":true,"e":true," ":true,"arrowright":true},"trial_type":"task-plugin","trial_index":224,"plugin_version":"1.0","time_elapsed":881314,"medianTaps":{"calibrationPart1Median":29,"calibrationPart2Median":37}},{"task":"success","success":true,"trial_type":"success-screen-plugin","trial_index":226,"plugin_version":null,"time_elapsed":881822},{"trial_type":"html-keyboard-response","trial_index":227,"plugin_version":null,"time_elapsed":882127},{"task":"accept","reward":25,"bounds":[47.501883800467795,67.5018838004678],"originalBounds":[45,65],"delay":[0,0],"rt":1640,"stimulus":"\n<div\n  id=\"acceptance-container\"\n  style=\"display: flex; flex-direction: column; justify-content: center; align-items: center; height: 100%;\"\n>\n  <div\n    id=\"thermometer-container\"\n    style=\"display: flex; justify-content: center; align-items: center; height: 300px; width: 100px; border: 1px solid #000; margin-bottom: 10px; box-sizing: border-box;\"\n  >\n    <div\n      id=\"thermometer\"\n      style=\"position: relative; width: 100%; height: 100%; background-color: #e0e0e0; box-sizing: border-box;\"\n    >\n      <div\n        id=\"blue-area\"\n        style=\"position: absolute; bottom: 47.501883800467795%; height: 20%; width: 100%; background-color: blue;\"\n      ></div>\n      <div\n        id=\"lower-bound\"\n        style=\"position: absolute; bottom: 47.501883800467795%; width: 100%; height: 2px; background-color: black;\"\n      ></div>\n      <div\n        id=\"upper-bound\"\n        style=\"position: absolute; bottom: 67.5018838004678%; width: 100%; height: 2px; background-color: black;\"\n      ></div>\n    </div>\n  </div>\n  <p style=\"text-align: center;\">Reward:  25 points</p>\n  <p style=\"text-align: center;\"><br>Press the <b>Right Arrow</b> on your keyboard to accept the trial <svg class='right-arrow' style='width: 48px; height: 48px;'xmlns='http://www.w3.org/2000/svg' viewBox='0 0 16 16'><path fill-rule='evenodd' d='M10.146 4.646a.5.5 0 0 1 .708 0l2.646 2.647-2.646 2.646a.5.5 0 0 1-.708-.707L11.293 8H2a.5.5 0 0 1 0-1h9.293L10.146 5.354a.5.5 0 0 1 0-.708z'/></svg><br>or<br><svg class='left-arrow' style='width: 48px; height: 48px;' xmlns='http://www.w3.org/2000/svg' viewBox='0 0 16 16'><path fill-rule='evenodd' d='M5.854 4.646a.5.5 0 0 0-.708 0L2.5 7.293l2.646 2.647a.5.5 0 0 0 .708-.707L4.707 8H14a.5.5 0 0 0 0-1H4.707l1.147-1.146a.5.5 0 0 0 0-.708z'/></svg>Press the <b>Left Arrow</b> on your keyboard to skip the trial</p>\n</div>\n","response":"ArrowRight","trial_type":"html-keyboard-response","trial_index":230,"plugin_version":null,"time_elapsed":883769,"accepted":true},{"task":"countdown","keyTappedEarlyFlag":false,"trial_type":"countdown-trial","trial_index":231,"plugin_version":"1.0","time_elapsed":889570},{"blockType":"sync","task":"block","randomDelay":[0,0],"bounds":[47.501883800467795,67.5018838004678],"reward":25,"tapCount":29,"startTime":889571,"endTime":896572,"mercuryHeight":62.10810810810807,"error":"","errorOccurred":false,"keysReleasedFlag":false,"success":true,"keyTappedEarlyFlag":false,"keysState":{"a":true,"w":true,"e":true," ":true,"arrowright":true},"trial_type":"task-plugin","trial_index":232,"plugin_version":"1.0","time_elapsed":896573,"medianTaps":{"calibrationPart1Median":29,"calibrationPart2Median":37}},{"errorOccurred":false,"trial_type":"release-keys","trial_index":233,"plugin_version":"1.0","time_elapsed":897239},{"task":"success","success":true,"trial_type":"success-screen-plugin","trial_index":234,"plugin_version":null,"time_elapsed":897741},{"trial_type":"html-keyboard-response","trial_index":236,"plugin_version":null,"time_elapsed":901379},{"task":"accept","reward":11,"bounds":[47.70084370440466,67.70084370440466],"originalBounds":[45,65],"delay":[0,0],"rt":1244,"stimulus":"\n<div\n  id=\"acceptance-container\"\n  style=\"display: flex; flex-direction: column; justify-content: center; align-items: center; height: 100%;\"\n>\n  <div\n    id=\"thermometer-container\"\n    style=\"display: flex; justify-content: center; align-items: center; height: 300px; width: 100px; border: 1px solid #000; margin-bottom: 10px; box-sizing: border-box;\"\n  >\n    <div\n      id=\"thermometer\"\n      style=\"position: relative; width: 100%; height: 100%; background-color: #e0e0e0; box-sizing: border-box;\"\n    >\n      <div\n        id=\"blue-area\"\n        style=\"position: absolute; bottom: 47.70084370440466%; height: 20%; width: 100%; background-color: blue;\"\n      ></div>\n      <div\n        id=\"lower-bound\"\n        style=\"position: absolute; bottom: 47.70084370440466%; width: 100%; height: 2px; background-color: black;\"\n      ></div>\n      <div\n        id=\"upper-bound\"\n        style=\"position: absolute; bottom: 67.70084370440466%; width: 100%; height: 2px; background-color: black;\"\n      ></div>\n    </div>\n  </div>\n  <p style=\"text-align: center;\">Reward:  11 points</p>\n  <p style=\"text-align: center;\"><br>Press the <b>Right Arrow</b> on your keyboard to accept the trial <svg class='right-arrow' style='width: 48px; height: 48px;'xmlns='http://www.w3.org/2000/svg' viewBox='0 0 16 16'><path fill-rule='evenodd' d='M10.146 4.646a.5.5 0 0 1 .708 0l2.646 2.647-2.646 2.646a.5.5 0 0 1-.708-.707L11.293 8H2a.5.5 0 0 1 0-1h9.293L10.146 5.354a.5.5 0 0 1 0-.708z'/></svg><br>or<br><svg class='left-arrow' style='width: 48px; height: 48px;' xmlns='http://www.w3.org/2000/svg' viewBox='0 0 16 16'><path fill-rule='evenodd' d='M5.854 4.646a.5.5 0 0 0-.708 0L2.5 7.293l2.646 2.647a.5.5 0 0 0 .708-.707L4.707 8H14a.5.5 0 0 0 0-1H4.707l1.147-1.146a.5.5 0 0 0 0-.708z'/></svg>Press the <b>Left Arrow</b> on your keyboard to skip the trial</p>\n</div>\n","response":"ArrowRight","trial_type":"html-keyboard-response","trial_index":238,"plugin_version":null,"time_elapsed":902625,"accepted":true},{"task":"countdown","keyTappedEarlyFlag":false,"trial_type":"countdown-trial","trial_index":239,"plugin_version":"1.0","time_elapsed":908322},{"blockType":"sync","task":"block","randomDelay":[0,0],"bounds":[47.70084370440466,67.70084370440466],"reward":11,"tapCount":29,"startTime":908323,"endTime":915324,"mercuryHeight":60.10810810810807,"error":"","errorOccurred":false,"keysReleasedFlag":false,"success":true,"keyTappedEarlyFlag":false,"keysState":{"a":true,"w":true,"e":true," ":true,"arrowright":true},"trial_type":"task-plugin","trial_index":240,"plugin_version":"1.0","time_elapsed":915324,"medianTaps":{"calibrationPart1Median":29,"calibrationPart2Median":37}},{"errorOccurred":false,"trial_type":"release-keys","trial_index":241,"plugin_version":"1.0","time_elapsed":916009},{"task":"success","success":true,"trial_type":"success-screen-plugin","trial_index":242,"plugin_version":null,"time_elapsed":916510},{"trial_type":"html-keyboard-response","trial_index":244,"plugin_version":null,"time_elapsed":920349},{"task":"accept","reward":2,"bounds":[21.579270969323147,41.57927096932315],"originalBounds":[20,40],"delay":[0,0],"rt":1322,"stimulus":"\n<div\n  id=\"acceptance-container\"\n  style=\"display: flex; flex-direction: column; justify-content: center; align-items: center; height: 100%;\"\n>\n  <div\n    id=\"thermometer-container\"\n    style=\"display: flex; justify-content: center; align-items: center; height: 300px; width: 100px; border: 1px solid #000; margin-bottom: 10px; box-sizing: border-box;\"\n  >\n    <div\n      id=\"thermometer\"\n      style=\"position: relative; width: 100%; height: 100%; background-color: #e0e0e0; box-sizing: border-box;\"\n    >\n      <div\n        id=\"blue-area\"\n        style=\"position: absolute; bottom: 21.579270969323147%; height: 20%; width: 100%; background-color: blue;\"\n      ></div>\n      <div\n        id=\"lower-bound\"\n        style=\"position: absolute; bottom: 21.579270969323147%; width: 100%; height: 2px; background-color: black;\"\n      ></div>\n      <div\n        id=\"upper-bound\"\n        style=\"position: absolute; bottom: 41.57927096932315%; width: 100%; height: 2px; background-color: black;\"\n      ></div>\n    </div>\n  </div>\n  <p style=\"text-align: center;\">Reward:  2 points</p>\n  <p style=\"text-align: center;\"><br>Press the <b>Right Arrow</b> on your keyboard to accept the trial <svg class='right-arrow' style='width: 48px; height: 48px;'xmlns='http://www.w3.org/2000/svg' viewBox='0 0 16 16'><path fill-rule='evenodd' d='M10.146 4.646a.5.5 0 0 1 .708 0l2.646 2.647-2.646 2.646a.5.5 0 0 1-.708-.707L11.293 8H2a.5.5 0 0 1 0-1h9.293L10.146 5.354a.5.5 0 0 1 0-.708z'/></svg><br>or<br><svg class='left-arrow' style='width: 48px; height: 48px;' xmlns='http://www.w3.org/2000/svg' viewBox='0 0 16 16'><path fill-rule='evenodd' d='M5.854 4.646a.5.5 0 0 0-.708 0L2.5 7.293l2.646 2.647a.5.5 0 0 0 .708-.707L4.707 8H14a.5.5 0 0 0 0-1H4.707l1.147-1.146a.5.5 0 0 0 0-.708z'/></svg>Press the <b>Left Arrow</b> on your keyboard to skip the trial</p>\n</div>\n","response":"ArrowRight","trial_type":"html-keyboard-response","trial_index":246,"plugin_version":null,"time_elapsed":921673,"accepted":true},{"task":"countdown","keyTappedEarlyFlag":false,"trial_type":"countdown-trial","trial_index":247,"plugin_version":"1.0","time_elapsed":926178},{"blockType":"sync","task":"block","randomDelay":[0,0],"bounds":[21.579270969323147,41.57927096932315],"reward":2,"tapCount":24,"startTime":926179,"endTime":933180,"mercuryHeight":29.189189189189165,"error":"","errorOccurred":false,"keysReleasedFlag":false,"success":true,"keyTappedEarlyFlag":false,"keysState":{"a":true,"w":true,"e":true," ":true,"arrowright":true},"trial_type":"task-plugin","trial_index":248,"plugin_version":"1.0","time_elapsed":933180,"medianTaps":{"calibrationPart1Median":29,"calibrationPart2Median":37}},{"errorOccurred":false,"trial_type":"release-keys","trial_index":249,"plugin_version":"1.0","time_elapsed":933889},{"task":"success","success":true,"trial_type":"success-screen-plugin","trial_index":250,"plugin_version":null,"time_elapsed":934391},{"trial_type":"html-keyboard-response","trial_index":252,"plugin_version":null,"time_elapsed":938034},{"task":"accept","reward":26,"bounds":[74.71540204067776,94.71540204067776],"originalBounds":[70,90],"delay":[0,0],"rt":1341,"stimulus":"\n<div\n  id=\"acceptance-container\"\n  style=\"display: flex; flex-direction: column; justify-content: center; align-items: center; height: 100%;\"\n>\n  <div\n    id=\"thermometer-container\"\n    style=\"display: flex; justify-content: center; align-items: center; height: 300px; width: 100px; border: 1px solid #000; margin-bottom: 10px; box-sizing: border-box;\"\n  >\n    <div\n      id=\"thermometer\"\n      style=\"position: relative; width: 100%; height: 100%; background-color: #e0e0e0; box-sizing: border-box;\"\n    >\n      <div\n        id=\"blue-area\"\n        style=\"position: absolute; bottom: 74.71540204067776%; height: 20%; width: 100%; background-color: blue;\"\n      ></div>\n      <div\n        id=\"lower-bound\"\n        style=\"position: absolute; bottom: 74.71540204067776%; width: 100%; height: 2px; background-color: black;\"\n      ></div>\n      <div\n        id=\"upper-bound\"\n        style=\"position: absolute; bottom: 94.71540204067776%; width: 100%; height: 2px; background-color: black;\"\n      ></div>\n    </div>\n  </div>\n  <p style=\"text-align: center;\">Reward:  26 points</p>\n  <p style=\"text-align: center;\"><br>Press the <b>Right Arrow</b> on your keyboard to accept the trial <svg class='right-arrow' style='width: 48px; height: 48px;'xmlns='http://www.w3.org/2000/svg' viewBox='0 0 16 16'><path fill-rule='evenodd' d='M10.146 4.646a.5.5 0 0 1 .708 0l2.646 2.647-2.646 2.646a.5.5 0 0 1-.708-.707L11.293 8H2a.5.5 0 0 1 0-1h9.293L10.146 5.354a.5.5 0 0 1 0-.708z'/></svg><br>or<br><svg class='left-arrow' style='width: 48px; height: 48px;' xmlns='http://www.w3.org/2000/svg' viewBox='0 0 16 16'><path fill-rule='evenodd' d='M5.854 4.646a.5.5 0 0 0-.708 0L2.5 7.293l2.646 2.647a.5.5 0 0 0 .708-.707L4.707 8H14a.5.5 0 0 0 0-1H4.707l1.147-1.146a.5.5 0 0 0 0-.708z'/></svg>Press the <b>Left Arrow</b> on your keyboard to skip the trial</p>\n</div>\n","response":"ArrowRight","trial_type":"html-keyboard-response","trial_index":254,"plugin_version":null,"time_elapsed":939377,"accepted":true},{"blockType":"sync","task":"block","randomDelay":[0,0],"bounds":[74.71540204067776,94.71540204067776],"reward":26,"tapCount":0,"startTime":0,"endTime":0,"mercuryHeight":0,"error":"","errorOccurred":false,"keysReleasedFlag":false,"success":true,"keyTappedEarlyFlag":false,"keysState":{"a":true,"w":true,"e":true," ":true,"arrowright":true},"trial_type":"task-plugin","trial_index":255,"plugin_version":"1.0","time_elapsed":939379,"medianTaps":{"calibrationPart1Median":29,"calibrationPart2Median":37}},{"task":"success","success":true,"trial_type":"success-screen-plugin","trial_index":257,"plugin_version":null,"time_elapsed":939886},{"trial_type":"html-keyboard-response","trial_index":258,"plugin_version":null,"time_elapsed":940090},{"task":"accept","reward":3,"bounds":[43.94575339384339,63.94575339384339],"originalBounds":[45,65],"delay":[0,0],"rt":1349,"stimulus":"\n<div\n  id=\"acceptance-container\"\n  style=\"display: flex; flex-direction: column; justify-content: center; align-items: center; height: 100%;\"\n>\n  <div\n    id=\"thermometer-container\"\n    style=\"display: flex; justify-content: center; align-items: center; height: 300px; width: 100px; border: 1px solid #000; margin-bottom: 10px; box-sizing: border-box;\"\n  >\n    <div\n      id=\"thermometer\"\n      style=\"position: relative; width: 100%; height: 100%; background-color: #e0e0e0; box-sizing: border-box;\"\n    >\n      <div\n        id=\"blue-area\"\n        style=\"position: absolute; bottom: 43.94575339384339%; height: 20%; width: 100%; background-color: blue;\"\n      ></div>\n      <div\n        id=\"lower-bound\"\n        style=\"position: absolute; bottom: 43.94575339384339%; width: 100%; height: 2px; background-color: black;\"\n      ></div>\n      <div\n        id=\"upper-bound\"\n        style=\"position: absolute; bottom: 63.94575339384339%; width: 100%; height: 2px; background-color: black;\"\n      ></div>\n    </div>\n  </div>\n  <p style=\"text-align: center;\">Reward:  3 points</p>\n  <p style=\"text-align: center;\"><br>Press the <b>Right Arrow</b> on your keyboard to accept the trial <svg class='right-arrow' style='width: 48px; height: 48px;'xmlns='http://www.w3.org/2000/svg' viewBox='0 0 16 16'><path fill-rule='evenodd' d='M10.146 4.646a.5.5 0 0 1 .708 0l2.646 2.647-2.646 2.646a.5.5 0 0 1-.708-.707L11.293 8H2a.5.5 0 0 1 0-1h9.293L10.146 5.354a.5.5 0 0 1 0-.708z'/></svg><br>or<br><svg class='left-arrow' style='width: 48px; height: 48px;' xmlns='http://www.w3.org/2000/svg' viewBox='0 0 16 16'><path fill-rule='evenodd' d='M5.854 4.646a.5.5 0 0 0-.708 0L2.5 7.293l2.646 2.647a.5.5 0 0 0 .708-.707L4.707 8H14a.5.5 0 0 0 0-1H4.707l1.147-1.146a.5.5 0 0 0 0-.708z'/></svg>Press the <b>Left Arrow</b> on your keyboard to skip the trial</p>\n</div>\n","response":"ArrowRight","trial_type":"html-keyboard-response","trial_index":261,"plugin_version":null,"time_elapsed":941441,"accepted":true},{"blockType":"sync","task":"block","randomDelay":[0,0],"bounds":[43.94575339384339,63.94575339384339],"reward":3,"tapCount":0,"startTime":0,"endTime":0,"mercuryHeight":0,"error":"","errorOccurred":false,"keysReleasedFlag":false,"success":true,"keyTappedEarlyFlag":false,"keysState":{"a":true,"w":true,"e":true," ":true,"arrowright":true},"trial_type":"task-plugin","trial_index":262,"plugin_version":"1.0","time_elapsed":941443,"medianTaps":{"calibrationPart1Median":29,"calibrationPart2Median":37}},{"task":"success","success":true,"trial_type":"success-screen-plugin","trial_index":264,"plugin_version":null,"time_elapsed":941950},{"trial_type":"html-keyboard-response","trial_index":265,"plugin_version":null,"time_elapsed":942153},{"task":"accept","reward":11,"bounds":[68.49905561456562,88.49905561456562],"originalBounds":[70,90],"delay":[0,0],"rt":1318,"stimulus":"\n<div\n  id=\"acceptance-container\"\n  style=\"display: flex; flex-direction: column; justify-content: center; align-items: center; height: 100%;\"\n>\n  <div\n    id=\"thermometer-container\"\n    style=\"display: flex; justify-content: center; align-items: center; height: 300px; width: 100px; border: 1px solid #000; margin-bottom: 10px; box-sizing: border-box;\"\n  >\n    <div\n      id=\"thermometer\"\n      style=\"position: relative; width: 100%; height: 100%; background-color: #e0e0e0; box-sizing: border-box;\"\n    >\n      <div\n        id=\"blue-area\"\n        style=\"position: absolute; bottom: 68.49905561456562%; height: 20%; width: 100%; background-color: blue;\"\n      ></div>\n      <div\n        id=\"lower-bound\"\n        style=\"position: absolute; bottom: 68.49905561456562%; width: 100%; height: 2px; background-color: black;\"\n      ></d