[{"success":true,"timeout":false,"failed_images":[],"failed_audio":[],"failed_video":[],"trial_type":"preload","trial_index":0,"plugin_version":null,"time_elapsed":4},{"rt":16959,"stimulus":"Connect a device<br>","response":0,"trial_type":"html-button-response","trial_index":1,"plugin_version":"2.0.0","time_elapsed":16965},{"trial_type":"html-button-response","trial_index":2,"plugin_version":"2.0.0","time_elapsed":22055},{"trial_type":"html-keyboard-response","trial_index":3,"plugin_version":null,"time_elapsed":27266},{"success":true,"rt":5742,"trial_type":"fullscreen","trial_index":4,"plugin_version":null,"time_elapsed":34012},{"rt":67015,"stimulus":["\n<h2>Introduction</h2>\n<p1>Please sit comfortably with your face around 50cm from your screen during the experiment.</p1>\n<img src=\"./assets/images/tip.png\" alt=\"Description of the image\" style=\"width:800px;height:auto; display:block; margin: 10px auto;\">\n<div style=\"text-align: center; margin-top: 0%;\">\n    <p style=\"color: #333; max-width: 80%; margin: 0 auto; line-height: 1.5;\">\n      <p1> Click the button below to proceed.</p1>\n    </p>\n</div>\n"],"response":0,"trial_type":"html-button-response","trial_index":5,"plugin_version":"2.0.0","time_elapsed":101028},{"rt":18387,"stimulus":["The first part of the experiment will consist of two different sections:<br><br><ol style='text-align: left;'><li>A practice section so you can get familiarized with the task you will be performing.</li><li>A calibration section to ensure that everything is running correctly.</li></ol><p>Please follow the instructions throughout each section carefully.</p>Press the button below to begin."],"response":0,"trial_type":"html-button-response","trial_index":6,"plugin_version":"2.0.0","time_elapsed":119417},{"rt":69185,"stimulus":["\n<div style=\"display: flex; flex-direction: column; justify-content: center; align-items: center; padding: 10px 0;\">\n  <div style=\"text-align: center; margin-bottom: 2%;\">\n    <p style=\"font-size: 1.5vw; color: #333; max-width: 80%; margin: 0 auto; line-height: 1.5;\">\n      <h2>Tutorial</h2>The video below demonstrates how the task will be performed.<br><br><ol><li> You will place your pinky on the <b>A</b> key<br></li><li> Place your ring finger on the <b>W</b> key<br></li> <li>Place your middle finger on the <b>E</b> key</li><li>Place your left thumb on the <b>spacebar</b> key</li><li>Place your right index finger on the <b>right arrow</b> key</li></ol><br><p>While still holding down with these fingers, simultaneously, when you see the <b>GO!</b>, tap the <b>F</b> key, <b>repeatedly</b> with your index finger <b>as fast as you can!</b></p><ul class = 'warning'><li>Do not tap the <b>F</b> key until the <b>GO!</b> appears</li> <li>Do not release the <b>A</b>, <b>W</b>, <b>E</b>, <b>Spacebar</b>, <b>Right Arrow</b> until prompted.</li></ul>. <br />Click the continue at the bottom to proceed to the test trial.\n    </p>\n  </div>\n  <div style=\"flex-grow: 1; display: flex; justify-content: center; align-items: center; margin: 0 auto;\">\n    <div style=\"width: 60%; max-width: 550px; height: auto; background-color: rgb(255, 255, 255);\">\n      <video\n        id=\"videoTutorial\"\n        title=\"Tutorial Video\"\n        style=\"width: 100%; height: auto;\"\n        src=\"./assets/videos/calibration-part1.mp4\"\n        autoplay\n        muted\n        loop\n      ></video>\n    </div>\n  </div>\n    <p>\n      <p1> Click the button below to proceed.</p1>\n    </p>\n</div>"],"response":0,"trial_type":"html-button-response","trial_index":7,"plugin_version":"2.0.0","time_elapsed":188606},{"rt":19071,"stimulus":["\n<h2>Tutorial</h2>\n<p1>The image below shows how the fingers of <b>your left hand</b> should be placed on the keyboard throughout the task. <br /><b>The index finger of your right hand should be on the right arrow at the same time.</b></p1>\n<img src='./assets/images/hand.png' alt=\"Description of the image\" style=\"width:500px;height:auto; display:block; margin: 10px auto;\">\n<div style=\"text-align: center; margin-top: 0%;\">\n    <p style=\"color: #333; max-width: 80%; margin: 0 auto; line-height: 1.5;\">\n      <p1> Click the button below to proceed.</p1>\n    </p>\n</div>\n"],"response":0,"trial_type":"html-button-response","trial_index":8,"plugin_version":"2.0.0","time_elapsed":207679},{"task":"countdown","keyTappedEarlyFlag":false,"trial_type":"countdown-trial","trial_index":9,"plugin_version":"1.0","time_elapsed":226267},{"tapCount":25,"startTime":226269,"endTime":233270,"mercuryHeight":98,"error":"","bounds":[20,40],"reward":0,"task":"practice","errorOccurred":false,"keysReleasedFlag":false,"success":false,"keyTappedEarlyFlag":false,"keysState":{"a":true,"w":true,"e":true," ":true,"arrowright":true},"trial_type":"task-plugin","trial_index":10,"plugin_version":"1.0","time_elapsed":233271},{"errorOccurred":false,"trial_type":"release-keys","trial_index":11,"plugin_version":"1.0","time_elapsed":234269},{"task":"success","success":true,"trial_type":"success-screen-plugin","trial_index":12,"plugin_version":null,"time_elapsed":234772},{"trial_type":"html-keyboard-response","trial_index":13,"plugin_version":null,"time_elapsed":238007},{"task":"countdown","keyTappedEarlyFlag":false,"trial_type":"countdown-trial","trial_index":14,"plugin_version":"1.0","time_elapsed":242553},{"tapCount":33,"startTime":242554,"endTime":249555,"mercuryHeight":96,"error":"","bounds":[20,40],"reward":0,"task":"practice","errorOccurred":false,"keysReleasedFlag":false,"success":false,"keyTappedEarlyFlag":false,"keysState":{"a":true,"w":true,"e":true," ":true,"arrowright":true},"trial_type":"task-plugin","trial_index":15,"plugin_version":"1.0","time_elapsed":249555},{"errorOccurred":false,"trial_type":"release-keys","trial_index":16,"plugin_version":"1.0","time_elapsed":250246},{"task":"success","success":true,"trial_type":"success-screen-plugin","trial_index":17,"plugin_version":null,"time_elapsed":250749},{"trial_type":"html-keyboard-response","trial_index":18,"plugin_version":null,"time_elapsed":254086},{"rt":3766,"stimulus":["<h2>Calibration</h2>You will now begin the <b>Calibration</b> section of the experiment, which consists of <b>three</b> parts. <br>Press the button below to begin."],"response":0,"trial_type":"html-button-response","trial_index":19,"plugin_version":"2.0.0","time_elapsed":257854},{"rt":8444,"stimulus":"\n    <div style=\"display: flex; flex-direction: column; justify-content: center; align-items: center; text-align: center;\">\n      <p style=\"margin-bottom: 20px;\">\n        <h2>Calibration</h2><h3>Part 1</h3><p>You will perform the same task as the practice section.</p><ol><li> You will place your pinky on the <b>A</b> key<br></li><li> Place your ring finger on the <b>W</b> key<br></li> <li>Place your middle finger on the <b>E</b> key</li><li>Place your left thumb on the <b>spacebar</b> key</li><li>Place your right index finger on the <b>right arrow</b> key</li></ol><br><p>While still holding down with these fingers, simultaneously, when you see the <b>GO!</b>, tap the <b>F</b> key, <b>repeatedly</b> with your index finger <b>as fast as you can!</b></p><br><ul class = 'warning'><li>Do not tap the <b>F</b> key until the <b>GO!</b> appears</li> <li>Do not release the <b>A</b>, <b>W</b>, <b>E</b>, <b>Spacebar</b>, <b>Right Arrow</b> until prompted.</li></ul> <br><br> <p1>Press the button below to proceed.</p1>\n      </p>\n    </div>","response":0,"trial_type":"html-button-response","trial_index":20,"plugin_version":"2.0.0","time_elapsed":266300},{"task":"countdown","keyTappedEarlyFlag":false,"trial_type":"countdown-trial","trial_index":21,"plugin_version":"1.0","time_elapsed":271744},{"tapCount":33,"startTime":271746,"endTime":278748,"mercuryHeight":96,"error":"","bounds":[50,50],"reward":0,"task":"calibrationPart1","errorOccurred":false,"keysReleasedFlag":false,"success":false,"keyTappedEarlyFlag":false,"keysState":{"a":true,"w":true,"e":true," ":true,"arrowright":true},"trial_type":"task-plugin","trial_index":22,"plugin_version":"1.0","time_elapsed":278748,"medianTaps":{"calibrationPart1":33,"calibrationPart2":34,"finalCalibrationPart1":35,"finalCalibrationPart2":34}},{"errorOccurred":false,"trial_type":"release-keys","trial_index":23,"plugin_version":"1.0","time_elapsed":279197},{"trial_type":"html-keyboard-response","trial_index":24,"plugin_version":null,"time_elapsed":282436},{"task":"countdown","keyTappedEarlyFlag":false,"trial_type":"countdown-trial","trial_index":25,"plugin_version":"1.0","time_elapsed":287767},{"tapCount":33,"startTime":287768,"endTime":294769,"mercuryHeight":58,"error":"","bounds":[50,50],"reward":0,"task":"calibrationPart1","errorOccurred":false,"keysReleasedFlag":false,"success":false,"keyTappedEarlyFlag":false,"keysState":{"a":true,"w":true,"e":true," ":true,"arrowright":true},"trial_type":"task-plugin","trial_index":26,"plugin_version":"1.0","time_elapsed":294770,"medianTaps":{"calibrationPart1":33,"calibrationPart2":34,"finalCalibrationPart1":35,"finalCalibrationPart2":34}},{"errorOccurred":false,"trial_type":"release-keys","trial_index":27,"plugin_version":"1.0","time_elapsed":295207},{"trial_type":"html-keyboard-response","trial_index":28,"plugin_version":null,"time_elapsed":298447},{"rt":5926,"stimulus":["\n<div style=\"display: flex; flex-direction: column; justify-content: center; align-items: center; padding: 10px 0;\">\n  <div style=\"text-align: center; margin-bottom: 0%;\">\n    <p>\n      <h2>Calibration</h2><h3>Part 2</h3><p1>Get the red bar as high as possible with your taps!</p1><br><ul class = 'warning'><li>Do not tap the <b>F</b> key until the <b>GO!</b> appears</li> <li>Do not release the <b>A</b>, <b>W</b>, <b>E</b>, <b>Spacebar</b>, <b>Right Arrow</b> until prompted.</li></ul>\n    </p>\n  </div>\n  <div style=\"flex-grow: 1; display: flex; justify-content: center; align-items: center;\">\n    <div style=\"width: 40%; max-width: 700px; height: auto; background-color: rgb(255, 255, 255);\">\n      <video\n        id=\"videoTutorial\"\n        title=\"Tutorial Video\"\n        style=\"width: 100%; height: auto;\"\n        src=\"./assets/videos/calibration-part2.mp4\"\n        autoplay\n        muted\n        loop\n      ></video>\n    </div>\n  </div>\n  <div style=\"text-align: center; margin-top: 0%;\">\n    <p>\n      <p1> Click the button below to proceed.</p1>\n    </p>\n  </div>\n</div>"],"response":0,"trial_type":"html-button-response","trial_index":30,"plugin_version":"2.0.0","time_elapsed":304380},{"task":"countdown","keyTappedEarlyFlag":false,"trial_type":"countdown-trial","trial_index":31,"plugin_version":"1.0","time_elapsed":308834},{"tapCount":35,"startTime":308835,"endTime":315835,"mercuryHeight":69.5151515151515,"error":"","bounds":[50,50],"reward":0,"task":"calibrationPart2","errorOccurred":false,"keysReleasedFlag":false,"success":false,"keyTappedEarlyFlag":false,"keysState":{"a":true,"w":true,"e":true," ":true,"arrowright":true},"trial_type":"task-plugin","trial_index":32,"plugin_version":"1.0","time_elapsed":315836,"medianTaps":{"calibrationPart1":33,"calibrationPart2":34,"finalCalibrationPart1":35,"finalCalibrationPart2":34}},{"errorOccurred":false,"trial_type":"release-keys","trial_index":33,"plugin_version":"1.0","time_elapsed":316391},{"trial_type":"html-keyboard-response","trial_index":34,"plugin_version":null,"time_elapsed":319327},{"task":"countdown","keyTappedEarlyFlag":false,"trial_type":"countdown-trial","trial_index":35,"plugin_version":"1.0","time_elapsed":323362},{"tapCount":33,"startTime":323362,"endTime":330363,"mercuryHeight":58.00000000000001,"error":"","bounds":[50,50],"reward":0,"task":"calibrationPart2","errorOccurred":false,"keysReleasedFlag":false,"success":false,"keyTappedEarlyFlag":false,"keysState":{"a":true,"w":true,"e":true," ":true,"arrowright":true},"trial_type":"task-plugin","trial_index":36,"plugin_version":"1.0","time_elapsed":330363,"medianTaps":{"calibrationPart1":33,"calibrationPart2":34,"finalCalibrationPart1":35,"finalCalibrationPart2":34}},{"errorOccurred":false,"trial_type":"release-keys","trial_index":37,"plugin_version":"1.0","time_elapsed":330905},{"trial_type":"html-keyboard-response","trial_index":38,"plugin_version":null,"time_elapsed":334042},{"rt":13413,"stimulus":["\n<div style=\"display: flex; flex-direction: column; justify-content: center; align-items: center; padding: 10px 0;\">\n  <div style=\"text-align: center; margin-bottom: 0%;\">\n    <p>\n      <h2>Calibration</h2><h3>Part 3</h3><p1>Get the top of the red bar in the target area with your taps!</p1><br><ul class = 'warning'><li>Do not tap the <b>F</b> key until the <b>GO!</b> appears</li> <li>Do not release the <b>A</b>, <b>W</b>, <b>E</b>, <b>Spacebar</b>, <b>Right Arrow</b> until prompted.</li></ul>\n    </p>\n  </div>\n  <div style=\"flex-grow: 1; display: flex; justify-content: center; align-items: center;\">\n    <div style=\"width: 100%; max-width: 500px; height: auto; background-color: rgb(255, 255, 255);\">\n      <video\n        id=\"videoTutorial\"\n        title=\"Tutorial Video\"\n        style=\"width: 100%; height: auto;\"\n        src=\"./assets/videos/validation.mp4\"\n        autoplay\n        muted\n        loop\n      ></video>\n    </div>\n  </div>\n  <div style=\"text-align: center; margin-top: 0%;\">\n    <p>\n      <p1> Click the button below to proceed.</p1>\n    </p>\n  </div>\n</div>"],"response":0,"trial_type":"html-button-response","trial_index":40,"plugin_version":"2.0.0","time_elapsed":347461},{"task":"countdown","keyTappedEarlyFlag":false,"trial_type":"countdown-trial","trial_index":41,"plugin_version":"1.0","time_elapsed":353023},{"task":"validationEasy","tapCount":24,"startTime":353024,"endTime":360026,"mercuryHeight":37.411764705882405,"error":"","bounds":[30,50],"reward":0,"errorOccurred":false,"keysReleasedFlag":false,"success":true,"keyTappedEarlyFlag":false,"keysState":{"a":true,"w":true,"e":true," ":true,"arrowright":true},"trial_type":"task-plugin","trial_index":42,"plugin_version":"1.0","time_elapsed":360027},{"errorOccurred":false,"trial_type":"release-keys","trial_index":43,"plugin_version":"1.0","time_elapsed":360511},{"task":"success","success":true,"trial_type":"success-screen-plugin","trial_index":44,"plugin_version":null,"time_elapsed":361012},{"trial_type":"html-keyboard-response","trial_index":45,"plugin_version":null,"time_elapsed":364151},{"task":"countdown","keyTappedEarlyFlag":false,"trial_type":"countdown-trial","trial_index":46,"plugin_version":"1.0","time_elapsed":368453},{"task":"validationMedium","tapCount":27,"startTime":368455,"endTime":375456,"mercuryHeight":58.58823529411771,"error":"","bounds":[50,70],"reward":0,"errorOccurred":false,"keysReleasedFlag":false,"success":true,"keyTappedEarlyFlag":false,"keysState":{"a":true,"w":true,"e":true," ":true,"arrowright":true},"trial_type":"task-plugin","trial_index":47,"plugin_version":"1.0","time_elapsed":375456},{"errorOccurred":false,"trial_type":"release-keys","trial_index":48,"plugin_version":"1.0","time_elapsed":375983},{"task":"success","success":true,"trial_type":"success-screen-plugin","trial_index":49,"plugin_version":null,"time_elapsed":376484},{"trial_type":"html-keyboard-response","trial_index":50,"plugin_version":null,"time_elapsed":379820},{"task":"countdown","keyTappedEarlyFlag":false,"trial_type":"countdown-trial","trial_index":51,"plugin_version":"1.0","time_elapsed":383574},{"task":"validationHard","tapCount":30,"startTime":383576,"endTime":390577,"mercuryHeight":79.76470588235301,"error":"","bounds":[70,90],"reward":0,"errorOccurred":false,"keysReleasedFlag":false,"success":true,"keyTappedEarlyFlag":false,"keysState":{"a":true,"w":true,"e":true," ":true,"arrowright":true},"trial_type":"task-plugin","trial_index":52,"plugin_version":"1.0","time_elapsed":390578},{"errorOccurred":false,"trial_type":"release-keys","trial_index":53,"plugin_version":"1.0","time_elapsed":391088},{"task":"success","success":true,"trial_type":"success-screen-plugin","trial_index":54,"plugin_version":null,"time_elapsed":391590},{"trial_type":"html-keyboard-response","trial_index":55,"plugin_version":null,"time_elapsed":395331},{"additional":true,"validation":true,"rt":8567,"response":{"Your Level of Attention":5},"question_order":[0],"trial_type":"survey-likert","trial_index":57,"plugin_version":null,"time_elapsed":403902},{"additional":true,"validation":true,"rt":6797,"response":{"Your Level of Motivation":5},"question_order":[0],"trial_type":"survey-likert","trial_index":58,"plugin_version":null,"time_elapsed":410701},{"additional":true,"validation":true,"rt":7750,"response":{"Your Level of Muscular Fatigue of the Left Arm":3},"question_order":[0],"trial_type":"survey-likert","trial_index":59,"plugin_version":null,"time_elapsed":418453},{"additional":true,"validation":true,"rt":5414,"response":{"Your Level of Overall Tiredness":1},"question_order":[0],"trial_type":"survey-likert","trial_index":60,"plugin_version":null,"time_elapsed":423869},{"rt":197060,"stimulus":["\n<div style=\"text-align: center; margin: 0 10%;\">\n  <h2>Trial Blocks</h2>\n  <p>\n    During this next phase of the experiment, you will have the choice to skip or accept a trial.<br><br>You may skip the trial with the <b>Left Arrow</b> on your keyboard<br>or<br>You may accept a trial with the <b>Right Arrow</b> on your keyboard<br><br>If the trial is accepted, you <b>may</b> have to complete a tapping task. The required target area or the task will be shown in <b>blue</b>. If the <b>top of the red bar</b> ends <b>inside</b> the target area during the trial, you will receive the reward shown to you.<br /><br /><h4>ⓘ Before the block begins, you will have a set of practice trials to familiarize yourself with the task.</h4>\n  </p>\n  <p style=\"color: #333; max-width: 80%; margin: 0 auto; line-height: 1.5;\">\n    <p1> Click the button below to proceed.</p1>\n  </p>\n</div>\n"],"response":0,"trial_type":"html-button-response","trial_index":61,"plugin_version":"2.0.0","time_elapsed":620931},{"rt":31750,"stimulus":["\n<div style=\"text-align: center; margin: 0 10%;\">\n  <h2>Reward Information</h2>\n  <p>\n    During this part of the experiment you will also start earning your additional reward.<br><br>For each trial offer, you will see what tapping effort you will have to do to succeed, based on how high-up the target area is located. Moreover, you will be able to see the reward (in points) you receive, if you succeed the trial. <h4>For every trial, the question to you is: <b>is it worth putting in this much tapping effort, for this reward?</b></h4>If you accept a trial, you <b>may</b> have to perform the tapping and <b>if you succeed, you will receive the points.</b> If you decline, you will move on to the next trial <b>and you will not receive the points.</b><br /><br />Your final reward money is based on the percentage of points that you collect.\n  </p>\n  <p style=\"color: #333; max-width: 80%; margin: 0 auto; line-height: 1.5;\">\n    <p1> Click the button below to proceed.</p1>\n  </p>\n</div>\n"],"response":0,"trial_type":"html-button-response","trial_index":62,"plugin_version":"2.0.0","time_elapsed":652682},{"rt":23845,"stimulus":"<p><p><br>The next <b>3</b> trials you will complete are <b>practice</b> trials.<br>The feedback you receive on the display when the <b>F</b> key is tapped will be the same as in the next block of trials that you will complete. <br><br> Attempt to finish the trial with the top of the red bar within the target area. <br><ul class = 'warning'><li>Do not tap the <b>F</b> key until the <b>GO!</b> appears</li> <li>Do not release the <b>A</b>, <b>W</b>, <b>E</b>, <b>Spacebar</b>, <b>Right Arrow</b> until prompted.</li></ul></p>","response":0,"trial_type":"html-button-response","trial_index":63,"plugin_version":"2.0.0","time_elapsed":676530},{"task":"countdown","keyTappedEarlyFlag":false,"trial_type":"countdown-trial","trial_index":64,"plugin_version":"1.0","time_elapsed":684308},{"blockType":"wideasync","task":"demo","randomDelay":[0,1000],"bounds":[20,40],"reward":0,"tapCount":23,"startTime":684310,"endTime":691311,"mercuryHeight":25.294117647058822,"error":"","errorOccurred":false,"keysReleasedFlag":false,"success":true,"keyTappedEarlyFlag":false,"keysState":{"a":true,"w":true,"e":true," ":true,"arrowright":true},"trial_type":"task-plugin","trial_index":65,"plugin_version":"1.0","time_elapsed":691312,"minimumTapsReached":true},{"errorOccurred":false,"trial_type":"release-keys","trial_index":66,"plugin_version":"1.0","time_elapsed":691892},{"trial_type":"html-keyboard-response","trial_index":68,"plugin_version":null,"time_elapsed":695430},{"task":"countdown","keyTappedEarlyFlag":true,"trial_type":"countdown-trial","trial_index":69,"plugin_version":"1.0","time_elapsed":701051},{"blockType":"wideasync","task":"demo","randomDelay":[0,1000],"bounds":[45,65],"reward":0,"tapCount":0,"startTime":0,"endTime":704053,"mercuryHeight":0,"error":"","errorOccurred":true,"keysReleasedFlag":false,"success":false,"keyTappedEarlyFlag":true,"keysState":{"a":true,"w":true,"e":true," ":true,"arrowright":true},"trial_type":"task-plugin","trial_index":70,"plugin_version":"1.0","time_elapsed":704054,"minimumTapsReached":false},{"errorOccurred":false,"trial_type":"release-keys","trial_index":71,"plugin_version":"1.0","time_elapsed":704970},{"trial_type":"html-keyboard-response","trial_index":73,"plugin_version":null,"time_elapsed":709110},{"task":"countdown","keyTappedEarlyFlag":false,"trial_type":"countdown-trial","trial_index":74,"plugin_version":"1.0","time_elapsed":713715},{"blockType":"wideasync","task":"demo","randomDelay":[0,1000],"bounds":[45,65],"reward":0,"tapCount":25,"startTime":713716,"endTime":720717,"mercuryHeight":34.35294117647058,"error":"","errorOccurred":false,"keysReleasedFlag":false,"success":false,"keyTappedEarlyFlag":false,"keysState":{"a":true,"w":true,"e":true," ":true,"arrowright":true},"trial_type":"task-plugin","trial_index":75,"plugin_version":"1.0","time_elapsed":720717,"minimumTapsReached":true},{"errorOccurred":false,"trial_type":"release-keys","trial_index":76,"plugin_version":"1.0","time_elapsed":721274},{"trial_type":"html-keyboard-response","trial_index":78,"plugin_version":null,"time_elapsed":724615},{"task":"countdown","keyTappedEarlyFlag":false,"trial_type":"countdown-trial","trial_index":79,"plugin_version":"1.0","time_elapsed":728717},{"blockType":"wideasync","task":"demo","randomDelay":[0,1000],"bounds":[70,90],"reward":0,"tapCount":30,"startTime":728718,"endTime":735720,"mercuryHeight":67.64705882352946,"error":"","errorOccurred":false,"keysReleasedFlag":false,"success":false,"keyTappedEarlyFlag":false,"keysState":{"a":true,"w":true,"e":true," ":true,"arrowright":true},"trial_type":"task-plugin","trial_index":80,"plugin_version":"1.0","time_elapsed":735720,"minimumTapsReached":true},{"errorOccurred":false,"trial_type":"release-keys","trial_index":81,"plugin_version":"1.0","time_elapsed":736298},{"trial_type":"html-keyboard-response","trial_index":83,"plugin_version":null,"time_elapsed":740147},{"rt":3219,"stimulus":["You will now answer a few questions. Press the button below to proceed."],"response":0,"trial_type":"html-button-response","trial_index":84,"plugin_version":"2.0.0","time_elapsed":743367},{"rt":7282,"response":{"I felt I was in control of the bar's movement.":0},"question_order":[0],"trial_type":"survey-likert","trial_index":85,"plugin_version":null,"time_elapsed":750651},{"additional":true,"rt":4070,"response":{"I found the task difficult.":5},"question_order":[0],"trial_type":"survey-likert","trial_index":86,"plugin_version":null,"time_elapsed":754723},{"task":"accept","reward":10,"bounds":[46.51525043189949,66.51525043189949],"originalBounds":[45,65],"delay":[0,1000],"rt":8550,"stimulus":"\n<div\n  id=\"acceptance-container\"\n  style=\"display: flex; flex-direction: column; justify-content: center; align-items: center; height: 100%;\"\n>\n  <div\n    id=\"thermometer-container\"\n    style=\"display: flex; justify-content: center; align-items: center; height: 300px; width: 100px; border: 1px solid #000; margin-bottom: 10px; box-sizing: border-box;\"\n  >\n    <div\n      id=\"thermometer\"\n      style=\"position: relative; width: 100%; height: 100%; background-color: #e0e0e0; box-sizing: border-box;\"\n    >\n      <div\n        id=\"blue-area\"\n        style=\"position: absolute; bottom: 46.51525043189949%; height: 20%; width: 100%; background-color: blue;\"\n      ></div>\n      <div\n        id=\"lower-bound\"\n        style=\"position: absolute; bottom: 46.51525043189949%; width: 100%; height: 2px; background-color: black;\"\n      ></div>\n      <div\n        id=\"upper-bound\"\n        style=\"position: absolute; bottom: 66.51525043189949%; width: 100%; height: 2px; background-color: black;\"\n      ></div>\n    </div>\n  </div>\n  <p style=\"text-align: center;\">Reward:  10 points</p>\n  <p style=\"text-align: center;\"><br>Press the <b>Right Arrow</b> on your keyboard to accept the trial <svg class='right-arrow' style='width: 48px; height: 48px;'xmlns='http://www.w3.org/2000/svg' viewBox='0 0 16 16'><path fill-rule='evenodd' d='M10.146 4.646a.5.5 0 0 1 .708 0l2.646 2.647-2.646 2.646a.5.5 0 0 1-.708-.707L11.293 8H2a.5.5 0 0 1 0-1h9.293L10.146 5.354a.5.5 0 0 1 0-.708z'/></svg><br>or<br><svg class='left-arrow' style='width: 48px; height: 48px;' xmlns='http://www.w3.org/2000/svg' viewBox='0 0 16 16'><path fill-rule='evenodd' d='M5.854 4.646a.5.5 0 0 0-.708 0L2.5 7.293l2.646 2.647a.5.5 0 0 0 .708-.707L4.707 8H14a.5.5 0 0 0 0-1H4.707l1.147-1.146a.5.5 0 0 0 0-.708z'/></svg>Press the <b>Left Arrow</b> on your keyboard to skip the trial</p>\n</div>\n","response":"ArrowRight","trial_type":"html-keyboard-response","trial_index":87,"plugin_version":null,"time_elapsed":763275,"accepted":true},{"blockType":"wideasync","task":"block","randomDelay":[0,1000],"bounds":[46.51525043189949,66.51525043189949],"reward":10,"tapCount":0,"startTime":0,"endTime":0,"mercuryHeight":0,"error":"","errorOccurred":false,"keysReleasedFlag":false,"success":true,"keyTappedEarlyFlag":false,"keysState":{"a":true,"w":true,"e":true," ":true,"arrowright":true},"trial_type":"task-plugin","trial_index":88,"plugin_version":"1.0","time_elapsed":763278,"medianTaps":{"calibrationPart1Median":33,"calibrationPart2Median":34}},{"task":"success","success":true,"trial_type":"success-screen-plugin","trial_index":90,"plugin_version":null,"time_elapsed":763783},{"trial_type":"html-keyboard-response","trial_index":91,"plugin_version":null,"time_elapsed":764191},{"task":"accept","reward":2,"bounds":[50.94894151645435,70.94894151645434],"originalBounds":[45,65],"delay":[0,1000],"rt":4858,"stimulus":"\n<div\n  id=\"acceptance-container\"\n  style=\"display: flex; flex-direction: column; justify-content: center; align-items: center; height: 100%;\"\n>\n  <div\n    id=\"thermometer-container\"\n    style=\"display: flex; justify-content: center; align-items: center; height: 300px; width: 100px; border: 1px solid #000; margin-bottom: 10px; box-sizing: border-box;\"\n  >\n    <div\n      id=\"thermometer\"\n      style=\"position: relative; width: 100%; height: 100%; background-color: #e0e0e0; box-sizing: border-box;\"\n    >\n      <div\n        id=\"blue-area\"\n        style=\"position: absolute; bottom: 50.94894151645435%; height: 19.999999999999993%; width: 100%; background-color: blue;\"\n      ></div>\n      <div\n        id=\"lower-bound\"\n        style=\"position: absolute; bottom: 50.94894151645435%; width: 100%; height: 2px; background-color: black;\"\n      ></div>\n      <div\n        id=\"upper-bound\"\n        style=\"position: absolute; bottom: 70.94894151645434%; width: 100%; height: 2px; background-color: black;\"\n      ></div>\n    </div>\n  </div>\n  <p style=\"text-align: center;\">Reward:  2 points</p>\n  <p style=\"text-align: center;\"><br>Press the <b>Right Arrow</b> on your keyboard to accept the trial <svg class='right-arrow' style='width: 48px; height: 48px;'xmlns='http://www.w3.org/2000/svg' viewBox='0 0 16 16'><path fill-rule='evenodd' d='M10.146 4.646a.5.5 0 0 1 .708 0l2.646 2.647-2.646 2.646a.5.5 0 0 1-.708-.707L11.293 8H2a.5.5 0 0 1 0-1h9.293L10.146 5.354a.5.5 0 0 1 0-.708z'/></svg><br>or<br><svg class='left-arrow' style='width: 48px; height: 48px;' xmlns='http://www.w3.org/2000/svg' viewBox='0 0 16 16'><path fill-rule='evenodd' d='M5.854 4.646a.5.5 0 0 0-.708 0L2.5 7.293l2.646 2.647a.5.5 0 0 0 .708-.707L4.707 8H14a.5.5 0 0 0 0-1H4.707l1.147-1.146a.5.5 0 0 0 0-.708z'/></svg>Press the <b>Left Arrow</b> on your keyboard to skip the trial</p>\n</div>\n","response":"ArrowLeft","trial_type":"html-keyboard-response","trial_index":94,"plugin_version":null,"time_elapsed":769050,"accepted":false},{"trial_type":"html-keyboard-response","trial_index":96,"plugin_version":null,"time_elapsed":769354},{"task":"accept","reward":9,"bounds":[22.815642053450645,42.815642053450645],"originalBounds":[20,40],"delay":[0,1000],"rt":1616,"stimulus":"\n<div\n  id=\"acceptance-container\"\n  style=\"display: flex; flex-direction: column; justify-content: center; align-items: center; height: 100%;\"\n>\n  <div\n    id=\"thermometer-container\"\n    style=\"display: flex; justify-content: center; align-items: center; height: 300px; width: 100px; border: 1px solid #000; margin-bottom: 10px; box-sizing: border-box;\"\n  >\n    <div\n      id=\"thermometer\"\n      style=\"position: relative; width: 100%; height: 100%; background-color: #e0e0e0; box-sizing: border-box;\"\n    >\n      <div\n        id=\"blue-area\"\n        style=\"position: absolute; bottom: 22.815642053450645%; height: 20%; width: 100%; background-color: blue;\"\n      ></div>\n      <div\n        id=\"lower-bound\"\n        style=\"position: absolute; bottom: 22.815642053450645%; width: 100%; height: 2px; background-color: black;\"\n      ></div>\n      <div\n        id=\"upper-bound\"\n        style=\"position: absolute; bottom: 42.815642053450645%; width: 100%; height: 2px; background-color: black;\"\n      ></div>\n    </div>\n  </div>\n  <p style=\"text-align: center;\">Reward:  9 points</p>\n  <p style=\"text-align: center;\"><br>Press the <b>Right Arrow</b> on your keyboard to accept the trial <svg class='right-arrow' style='width: 48px; height: 48px;'xmlns='http://www.w3.org/2000/svg' viewBox='0 0 16 16'><path fill-rule='evenodd' d='M10.146 4.646a.5.5 0 0 1 .708 0l2.646 2.647-2.646 2.646a.5.5 0 0 1-.708-.707L11.293 8H2a.5.5 0 0 1 0-1h9.293L10.146 5.354a.5.5 0 0 1 0-.708z'/></svg><br>or<br><svg class='left-arrow' style='width: 48px; height: 48px;' xmlns='http://www.w3.org/2000/svg' viewBox='0 0 16 16'><path fill-rule='evenodd' d='M5.854 4.646a.5.5 0 0 0-.708 0L2.5 7.293l2.646 2.647a.5.5 0 0 0 .708-.707L4.707 8H14a.5.5 0 0 0 0-1H4.707l1.147-1.146a.5.5 0 0 0 0-.708z'/></svg>Press the <b>Left Arrow</b> on your keyboard to skip the trial</p>\n</div>\n","response":"ArrowRight","trial_type":"html-keyboard-response","trial_index":97,"plugin_version":null,"time_elapsed":770971,"accepted":true},{"task":"countdown","keyTappedEarlyFlag":false,"trial_type":"countdown-trial","trial_index":98,"plugin_version":"1.0","time_elapsed":776469},{"blockType":"wideasync","task":"block","randomDelay":[0,1000],"bounds":[22.815642053450645,42.815642053450645],"reward":9,"tapCount":24,"startTime":776470,"endTime":783471,"mercuryHeight":23.29411764705884,"error":"","errorOccurred":false,"keysReleasedFlag":false,"success":true,"keyTappedEarlyFlag":false,"keysState":{"a":true,"w":true,"e":true," ":true,"arrowright":true},"trial_type":"task-plugin","trial_index":99,"plugin_version":"1.0","time_elapsed":783471,"medianTaps":{"calibrationPart1Median":33,"calibrationPart2Median":34}},{"errorOccurred":false,"trial_type":"release-keys","trial_index":100,"plugin_version":"1.0","time_elapsed":783987},{"task":"success","success":true,"trial_type":"success-screen-plugin","trial_index":101,"plugin_version":null,"time_elapsed":784489},{"trial_type":"html-keyboard-response","trial_index":103,"plugin_version":null,"time_elapsed":787523},{"task":"accept","reward":11,"bounds":[73.21427825980332,93.21427825980332],"originalBounds":[70,90],"delay":[0,1000],"rt":4676,"stimulus":"\n<div\n  id=\"acceptance-container\"\n  style=\"display: flex; flex-direction: column; justify-content: center; align-items: center; height: 100%;\"\n>\n  <div\n    id=\"thermometer-container\"\n    style=\"display: flex; justify-content: center; align-items: center; height: 300px; width: 100px; border: 1px solid #000; margin-bottom: 10px; box-sizing: border-box;\"\n  >\n    <div\n      id=\"thermometer\"\n      style=\"position: relative; width: 100%; height: 100%; background-color: #e0e0e0; box-sizing: border-box;\"\n    >\n      <div\n        id=\"blue-area\"\n        style=\"position: absolute; bottom: 73.21427825980332%; height: 20%; width: 100%; background-color: blue;\"\n      ></div>\n      <div\n        id=\"lower-bound\"\n        style=\"position: absolute; bottom: 73.21427825980332%; width: 100%; height: 2px; background-color: black;\"\n      ></div>\n      <div\n        id=\"upper-bound\"\n        style=\"position: absolute; bottom: 93.21427825980332%; width: 100%; height: 2px; background-color: black;\"\n      ></div>\n    </div>\n  </div>\n  <p style=\"text-align: center;\">Reward:  11 points</p>\n  <p style=\"text-align: center;\"><br>Press the <b>Right Arrow</b> on your keyboard to accept the trial <svg class='right-arrow' style='width: 48px; height: 48px;'xmlns='http://www.w3.org/2000/svg' viewBox='0 0 16 16'><path fill-rule='evenodd' d='M10.146 4.646a.5.5 0 0 1 .708 0l2.646 2.647-2.646 2.646a.5.5 0 0 1-.708-.707L11.293 8H2a.5.5 0 0 1 0-1h9.293L10.146 5.354a.5.5 0 0 1 0-.708z'/></svg><br>or<br><svg class='left-arrow' style='width: 48px; height: 48px;' xmlns='http://www.w3.org/2000/svg' viewBox='0 0 16 16'><path fill-rule='evenodd' d='M5.854 4.646a.5.5 0 0 0-.708 0L2.5 7.293l2.646 2.647a.5.5 0 0 0 .708-.707L4.707 8H14a.5.5 0 0 0 0-1H4.707l1.147-1.146a.5.5 0 0 0 0-.708z'/></svg>Press the <b>Left Arrow</b> on your keyboard to skip the trial</p>\n</div>\n","response":"ArrowRight","trial_type":"html-keyboard-response","trial_index":105,"plugin_version":null,"time_elapsed":792201,"accepted":true},{"blockType":"wideasync","task":"block","randomDelay":[0,1000],"bounds":[73.21427825980332,93.21427825980332],"reward":11,"tapCount":0,"startTime":0,"endTime":0,"mercuryHeight":0,"error":"","errorOccurred":false,"keysReleasedFlag":false,"success":true,"keyTappedEarlyFlag":false,"keysState":{"a":true,"w":true,"e":true," ":true,"arrowright":true},"trial_type":"task-plugin","trial_index":106,"plugin_version":"1.0","time_elapsed":792202,"medianTaps":{"calibrationPart1Median":33,"calibrationPart2Median":34}},{"task":"success","success":true,"trial_type":"success-screen-plugin","trial_index":108,"plugin_version":null,"time_elapsed":792705},{"trial_type":"html-keyboard-response","trial_index":109,"plugin_version":null,"time_elapsed":793314},{"task":"accept","reward":24,"bounds":[68.00051014052423,88.00051014052423],"originalBounds":[70,90],"delay":[0,1000],"rt":1774,"stimulus":"\n<div\n  id=\"acceptance-container\"\n  style=\"display: flex; flex-direction: column; justify-content: center; align-items: center; height: 100%;\"\n>\n  <div\n    id=\"thermometer-container\"\n    style=\"display: flex; justify-content: center; align-items: center; height: 300px; width: 100px; border: 1px solid #000; margin-bottom: 10px; box-sizing: border-box;\"\n  >\n    <div\n      id=\"thermometer\"\n      style=\"position: relative; width: 100%; height: 100%; background-color: #e0e0e0; box-sizing: border-box;\"\n    >\n      <div\n        id=\"blue-area\"\n        style=\"position: absolute; bottom: 68.00051014052423%; height: 20%; width: 100%; background-color: blue;\"\n      ></div>\n      <div\n        id=\"lower-bound\"\n        style=\"position: absolute; bottom: 68.00051014052423%; width: 100%; height: 2px; background-color: black;\"\n      ></div>\n      <div\n        id=\"upper-bound\"\n        style=\"position: absolute; bottom: 88.00051014052423%; width: 100%; height: 2px; background-color: black;\"\n      ></div>\n    </div>\n  </div>\n  <p style=\"text-align: center;\">Reward:  24 points</p>\n  <p style=\"text-align: center;\"><br>Press the <b>Right Arrow</b> on your keyboard to accept the trial <svg class='right-arrow' style='width: 48px; height: 48px;'xmlns='http://www.w3.org/2000/svg' viewBox='0 0 16 16'><path fill-rule='evenodd' d='M10.146 4.646a.5.5 0 0 1 .708 0l2.646 2.647-2.646 2.646a.5.5 0 0 1-.708-.707L11.293 8H2a.5.5 0 0 1 0-1h9.293L10.146 5.354a.5.5 0 0 1 0-.708z'/></svg><br>or<br><svg class='left-arrow' style='width: 48px; height: 48px;' xmlns='http://www.w3.org/2000/svg' viewBox='0 0 16 16'><path fill-rule='evenodd' d='M5.854 4.646a.5.5 0 0 0-.708 0L2.5 7.293l2.646 2.647a.5.5 0 0 0 .708-.707L4.707 8H14a.5.5 0 0 0 0-1H4.707l1.147-1.146a.5.5 0 0 0 0-.708z'/></svg>Press the <b>Left Arrow</b> on your keyboard to skip the trial</p>\n</div>\n","response":"ArrowRight","trial_type":"html-keyboard-response","trial_index":112,"plugin_version":null,"time_elapsed":795089,"accepted":true},{"blockType":"wideasync","task":"block","randomDelay":[0,1000],"bounds":[68.00051014052423,88.00051014052423],"reward":24,"tapCount":0,"startTime":0,"endTime":0,"mercuryHeight":0,"error":"","errorOccurred":false,"keysReleasedFlag":false,"success":true,"keyTappedEarlyFlag":false,"keysState":{"a":true,"w":true,"e":true," ":true,"arrowright":true},"trial_type":"task-plugin","trial_index":113,"plugin_version":"1.0","time_elapsed":795090,"medianTaps":{"calibrationPart1Median":33,"calibrationPart2Median":34}},{"task":"success","success":true,"trial_type":"success-screen-plugin","trial_index":115,"plugin_version":null,"time_elapsed":795592},{"trial_type":"html-keyboard-response","trial_index":116,"plugin_version":null,"time_elapsed":795999},{"task":"accept","reward":24,"bounds":[19.21207208174252,39.21207208174252],"originalBounds":[20,40],"delay":[0,1000],"rt":1250,"stimulus":"\n<div\n  id=\"acceptance-container\"\n  style=\"display: flex; flex-direction: column; justify-content: center; align-items: center; height: 100%;\"\n>\n  <div\n    id=\"thermometer-container\"\n    style=\"display: flex; justify-content: center; align-items: center; height: 300px; width: 100px; border: 1px solid #000; margin-bottom: 10px; box-sizing: border-box;\"\n  >\n    <div\n      id=\"thermometer\"\n      style=\"position: relative; width: 100%; height: 100%; background-color: #e0e0e0; box-sizing: border-box;\"\n    >\n      <div\n        id=\"blue-area\"\n        style=\"position: absolute; bottom: 19.21207208174252%; height: 20%; width: 100%; background-color: blue;\"\n      ></div>\n      <div\n        id=\"lower-bound\"\n        style=\"position: absolute; bottom: 19.21207208174252%; width: 100%; height: 2px; background-color: black;\"\n      ></div>\n      <div\n        id=\"upper-bound\"\n        style=\"position: absolute; bottom: 39.21207208174252%; width: 100%; height: 2px; background-color: black;\"\n      ></div>\n    </div>\n  </div>\n  <p style=\"text-align: center;\">Reward:  24 points</p>\n  <p style=\"text-align: center;\"><br>Press the <b>Right Arrow</b> on your keyboard to accept the trial <svg class='right-arrow' style='width: 48px; height: 48px;'xmlns='http://www.w3.org/2000/svg' viewBox='0 0 16 16'><path fill-rule='evenodd' d='M10.146 4.646a.5.5 0 0 1 .708 0l2.646 2.647-2.646 2.646a.5.5 0 0 1-.708-.707L11.293 8H2a.5.5 0 0 1 0-1h9.293L10.146 5.354a.5.5 0 0 1 0-.708z'/></svg><br>or<br><svg class='left-arrow' style='width: 48px; height: 48px;' xmlns='http://www.w3.org/2000/svg' viewBox='0 0 16 16'><path fill-rule='evenodd' d='M5.854 4.646a.5.5 0 0 0-.708 0L2.5 7.293l2.646 2.647a.5.5 0 0 0 .708-.707L4.707 8H14a.5.5 0 0 0 0-1H4.707l1.147-1.146a.5.5 0 0 0 0-.708z'/></svg>Press the <b>Left Arrow</b> on your keyboard to skip the trial</p>\n</div>\n","response":"ArrowRight","trial_type":"html-keyboard-response","trial_index":119,"plugin_version":null,"time_elapsed":797251,"accepted":true},{"blockType":"wideasync","task":"block","randomDelay":[0,1000],"bounds":[19.21207208174252,39.21207208174252],"reward":24,"tapCount":0,"startTime":0,"endTime":0,"mercuryHeight":0,"error":"","errorOccurred":false,"keysReleasedFlag":false,"success":true,"keyTappedEarlyFlag":false,"keysState":{"a":true,"w":true,"e":true," ":true,"arrowright":true},"trial_type":"task-plugin","trial_index":120,"plugin_version":"1.0","time_elapsed":797253,"medianTaps":{"calibrationPart1Median":33,"calibrationPart2Median":34}},{"task":"success","success":true,"trial_type":"success-screen-plugin","trial_index":122,"plugin_version":null,"time_elapsed":797758},{"trial_type":"html-keyboard-response","trial_index":123,"plugin_version":null,"time_elapsed":798163},{"task":"accept","reward":3,"bounds":[70.34078200245824,90.34078200245824],"originalBounds":[70,90],"delay":[0,1000],"rt":998,"stimulus":"\n<div\n  id=\"acceptance-container\"\n  style=\"display: flex; flex-direction: column; justify-content: center; align-items: center; height: 100%;\"\n>\n  <div\n    id=\"thermometer-container\"\n    style=\"display: flex; justify-content: center; align-items: center; height: 300px; width: 100px; border: 1px solid #000; margin-bottom: 10px; box-sizing: border-box;\"\n  >\n    <div\n      id=\"thermometer\"\n      style=\"position: relative; width: 100%; height: 100%; background-color: #e0e0e0; box-sizing: border-box;\"\n    >\n      <div\n        id=\"blue-area\"\n        style=\"position: absolute; bottom: 70.34078200245824%; height: 20%; width: 100%; background-color: blue;\"\n      ></div>\n      <div\n        id=\"lower-bound\"\n        style=\"position: absolute; bottom: 70.34078200245824%; width: 100%; height: 2px; background-color: black;\"\n      ></div>\n      <div\n        id=\"upper-bound\"\n        style=\"position: absolute; bottom: 90.34078200245824%; width: 100%; height: 2px; background-color: black;\"\n      ></div>\n    </div>\n  </div>\n  <p style=\"text-align: center;\">Reward:  3 points</p>\n  <p style=\"text-align: center;\"><br>Press the <b>Right Arrow</b> on your keyboard to accept the trial <svg class='right-arrow' style='width: 48px; height: 48px;'xmlns='http://www.w3.org/2000/svg' viewBox='0 0 16 16'><path fill-rule='evenodd' d='M10.146 4.646a.5.5 0 0 1 .708 0l2.646 2.647-2.646 2.646a.5.5 0 0 1-.708-.707L11.293 8H2a.5.5 0 0 1 0-1h9.293L10.146 5.354a.5.5 0 0 1 0-.708z'/></svg><br>or<br><svg class='left-arrow' style='width: 48px; height: 48px;' xmlns='http://www.w3.org/2000/svg' viewBox='0 0 16 16'><path fill-rule='evenodd' d='M5.854 4.646a.5.5 0 0 0-.708 0L2.5 7.293l2.646 2.647a.5.5 0 0 0 .708-.707L4.707 8H14a.5.5 0 0 0 0-1H4.707l1.147-1.146a.5.5 0 0 0 0-.708z'/></svg>Press the <b>Left Arrow</b> on your keyboard to skip the trial</p>\n</div>\n","response":"ArrowLeft","trial_type":"html-keyboard-response","trial_index":126,"plugin_version":null,"time_elapsed":799163,"accepted":false},{"trial_type":"html-keyboard-response","trial_index":128,"plugin_version":null,"time_elapsed":799367},{"task":"accept","reward":24,"bounds":[44.20288339730203,64.20288339730203],"originalBounds":[45,65],"delay":[0,1000],"rt":1049,"stimulus":"\n<div\n  id=\"acceptance-container\"\n  style=\"display: flex; flex-direction: column; justify-content: center; align-items: center; height: 100%;\"\n>\n  <div\n    id=\"thermometer-container\"\n    style=\"display: flex; justify-content: center; align-items: center; height: 300px; width: 100px; border: 1px solid #000; margin-bottom: 10px; box-sizing: border-box;\"\n  >\n    <div\n      id=\"thermometer\"\n      style=\"position: relative; width: 100%; height: 100%; background-color: #e0e0e0; box-sizing: border-box;\"\n    >\n      <div\n        id=\"blue-area\"\n        style=\"position: absolute; bottom: 44.20288339730203%; height: 20%; width: 100%; background-color: blue;\"\n      ></div>\n      <div\n        id=\"lower-bound\"\n        style=\"position: absolute; bottom: 44.20288339730203%; width: 100%; height: 2px; background-color: black;\"\n      ></div>\n      <div\n        id=\"upper-bound\"\n        style=\"position: absolute; bottom: 64.20288339730203%; width: 100%; height: 2px; background-color: black;\"\n      ></div>\n    </div>\n  </div>\n  <p style=\"text-align: center;\">Reward:  24 points</p>\n  <p style=\"text-align: center;\"><br>Press the <b>Right Arrow</b> on your keyboard to accept the trial <svg class='right-arrow' style='width: 48px; height: 48px;'xmlns='http://www.w3.org/2000/svg' viewBox='0 0 16 16'><path fill-rule='evenodd' d='M10.146 4.646a.5.5 0 0 1 .708 0l2.646 2.647-2.646 2.646a.5.5 0 0 1-.708-.707L11.293 8H2a.5.5 0 0 1 0-1h9.293L10.146 5.354a.5.5 0 0 1 0-.708z'/></svg><br>or<br><svg class='left-arrow' style='width: 48px; height: 48px;' xmlns='http://www.w3.org/2000/svg' viewBox='0 0 16 16'><path fill-rule='evenodd' d='M5.854 4.646a.5.5 0 0 0-.708 0L2.5 7.293l2.646 2.647a.5.5 0 0 0 .708-.707L4.707 8H14a.5.5 0 0 0 0-1H4.707l1.147-1.146a.5.5 0 0 0 0-.708z'/></svg>Press the <b>Left Arrow</b> on your keyboard to skip the trial</p>\n</div>\n","response":"ArrowRight","trial_type":"html-keyboard-response","trial_index":129,"plugin_version":null,"time_elapsed":800419,"accepted":true},{"task":"countdown","keyTappedEarlyFlag":false,"trial_type":"countdown-trial","trial_index":130,"plugin_version":"1.0","time_elapsed":805980},{"blockType":"wideasync","task":"block","randomDelay":[0,1000],"bounds":[44.20288339730203,64.20288339730203],"reward":24,"tapCount":26,"startTime":805981,"endTime":812982,"mercuryHeight":51.52941176470593,"error":"","errorOccurred":false,"keysReleasedFlag":false,"success":true,"keyTappedEarlyFlag":false,"keysState":{"a":true,"w":true,"e":true," ":true,"arrowright":true},"trial_type":"task-plugin","trial_index":131,"plugin_version":"1.0","time_elapsed":812982,"medianTaps":{"calibrationPart1Median":33,"calibrationPart2Median":34}},{"errorOccurred":false,"trial_type":"release-keys","trial_index":132,"plugin_version":"1.0","time_elapsed":813508},{"task":"success","success":true,"trial_type":"success-screen-plugin","trial_index":133,"plugin_version":null,"time_elapsed":814010},{"trial_type":"html-keyboard-response","trial_index":135,"plugin_version":null,"time_elapsed":817443},{"task":"accept","reward":2,"bounds":[19.411692046247254,39.41169204624725],"originalBounds":[20,40],"delay":[0,1000],"rt":2493,"stimulus":"\n<div\n  id=\"acceptance-container\"\n  style=\"display: flex; flex-direction: column; justify-content: center; align-items: center; height: 100%;\"\n>\n  <div\n    id=\"thermometer-container\"\n    style=\"display: flex; justify-content: center; align-items: center; height: 300px; width: 100px; border: 1px solid #000; margin-bottom: 10px; box-sizing: border-box;\"\n  >\n    <div\n      id=\"thermometer\"\n      style=\"position: relative; width: 100%; height: 100%; background-color: #e0e0e0; box-sizing: border-box;\"\n    >\n      <div\n        id=\"blue-area\"\n        style=\"position: absolute; bottom: 19.411692046247254%; height: 20%; width: 100%; background-color: blue;\"\n      ></div>\n      <div\n        id=\"lower-bound\"\n        style=\"position: absolute; bottom: 19.411692046247254%; width: 100%; height: 2px; background-color: black;\"\n      ></div>\n      <div\n        id=\"upper-bound\"\n        style=\"position: absolute; bottom: 39.41169204624725%; width: 100%; height: 2px; background-color: black;\"\n      ></div>\n    </div>\n  </div>\n  <p style=\"text-align: center;\">Reward:  2 points</p>\n  <p style=\"text-align: center;\"><br>Press the <b>Right Arrow</b> on your keyboard to accept the trial <svg class='right-arrow' style='width: 48px; height: 48px;'xmlns='http://www.w3.org/2000/svg' viewBox='0 0 16 16'><path fill-rule='evenodd' d='M10.146 4.646a.5.5 0 0 1 .708 0l2.646 2.647-2.646 2.646a.5.5 0 0 1-.708-.707L11.293 8H2a.5.5 0 0 1 0-1h9.293L10.146 5.354a.5.5 0 0 1 0-.708z'/></svg><br>or<br><svg class='left-arrow' style='width: 48px; height: 48px;' xmlns='http://www.w3.org/2000/svg' viewBox='0 0 16 16'><path fill-rule='evenodd' d='M5.854 4.646a.5.5 0 0 0-.708 0L2.5 7.293l2.646 2.647a.5.5 0 0 0 .708-.707L4.707 8H14a.5.5 0 0 0 0-1H4.707l1.147-1.146a.5.5 0 0 0 0-.708z'/></svg>Press the <b>Left Arrow</b> on your keyboard to skip the trial</p>\n</div>\n","response":"ArrowLeft","trial_type":"html-keyboard-response","trial_index":137,"plugin_version":null,"time_elapsed":819939,"accepted":false},{"trial_type":"html-keyboard-response","trial_index":139,"plugin_version":null,"time_elapsed":820143},{"task":"accept","reward":1,"bounds":[51.10990921155814,71.10990921155815],"originalBounds":[45,65],"delay":[0,1000],"rt":986,"stimulus":"\n<div\n  id=\"acceptance-container\"\n  style=\"display: flex; flex-direction: column; justify-content: center; align-items: center; height: 100%;\"\n>\n  <div\n    id=\"thermometer-container\"\n    style=\"display: flex; justify-content: center; align-items: center; height: 300px; width: 100px; border: 1px solid #000; margin-bottom: 10px; box-sizing: border-box;\"\n  >\n    <div\n      id=\"thermometer\"\n      style=\"position: relative; width: 100%; height: 100%; background-color: #e0e0e0; box-sizing: border-box;\"\n    >\n      <div\n        id=\"blue-area\"\n        style=\"position: absolute; bottom: 51.10990921155814%; height: 20.000000000000007%; width: 100%; background-color: blue;\"\n      ></div>\n      <div\n        id=\"lower-bound\"\n        style=\"position: absolute; bottom: 51.10990921155814%; width: 100%; height: 2px; background-color: black;\"\n      ></div>\n      <div\n        id=\"upper-bound\"\n        style=\"position: absolute; bottom: 71.10990921155815%; width: 100%; height: 2px; background-color: black;\"\n      ></div>\n    </div>\n  </div>\n  <p style=\"text-align: center;\">Reward:  1 points</p>\n  <p style=\"text-align: center;\"><br>Press the <b>Right Arrow</b> on your keyboard to accept the trial <svg class='right-arrow' style='width: 48px; height: 48px;'xmlns='http://www.w3.org/2000/svg' viewBox='0 0 16 16'><path fill-rule='evenodd' d='M10.146 4.646a.5.5 0 0 1 .708 0l2.646 2.647-2.646 2.646a.5.5 0 0 1-.708-.707L11.293 8H2a.5.5 0 0 1 0-1h9.293L10.146 5.354a.5.5 0 0 1 0-.708z'/></svg><br>or<br><svg class='left-arrow' style='width: 48px; height: 48px;' xmlns='http://www.w3.org/2000/svg' viewBox='0 0 16 16'><path fill-rule='evenodd' d='M5.854 4.646a.5.5 0 0 0-.708 0L2.5 7.293l2.646 2.647a.5.5 0 0 0 .708-.707L4.707 8H14a.5.5 0 0 0 0-1H4.707l1.147-1.146a.5.5 0 0 0 0-.708z'/></svg>Press the <b>Left Arrow</b> on your keyboard to skip the trial</p>\n</div>\n","response":"ArrowLeft","trial_type":"html-keyboard-response","trial_index":140,"plugin_version":null,"time_elapsed":821130,"accepted":false},{"trial_type":"html-keyboard-response","trial_index":142,"plugin_version":null,"time_elapsed":821535},{"task":"accept","reward":25,"bounds":[42.02438860133509,62.02438860133509],"originalBounds":[45,65],"delay":[0,1000],"rt":866,"stimulus":"\n<div\n  id=\"acceptance-container\"\n  style=\"display: flex; flex-direction: column; justify-content: center; align-items: center; height: 100%;\"\n>\n  <div\n    id=\"thermometer-container\"\n    style=\"display: flex; justify-content: center; align-items: center; height: 300px; width: 100px; border: 1px solid #000; margin-bottom: 10px; box-sizing: border-box;\"\n  >\n    <div\n      id=\"thermometer\"\n      style=\"position: relative; width: 100%; height: 100%; background-color: #e0e0e0; box-sizing: border-box;\"\n    >\n      <div\n        id=\"blue-area\"\n        style=\"position: absolute; bottom: 42.02438860133509%; height: 20%; width: 100%; background-color: blue;\"\n      ></div>\n      <div\n        id=\"lower-bound\"\n        style=\"position: absolute; bottom: 42.02438860133509%; width: 100%; height: 2px; background-color: black;\"\n      ></div>\n      <div\n        id=\"upper-bound\"\n        style=\"position: absolute; bottom: 62.02438860133509%; width: 100%; height: 2px; background-color: black;\"\n      ></div>\n    </div>\n  </div>\n  <p style=\"text-align: center;\">Reward:  25 points</p>\n  <p style=\"text-align: center;\"><br>Press the <b>Right Arrow</b> on your keyboard to accept the trial <svg class='right-arrow' style='width: 48px; height: 48px;'xmlns='http://www.w3.org/2000/svg' viewBox='0 0 16 16'><path fill-rule='evenodd' d='M10.146 4.646a.5.5 0 0 1 .708 0l2.646 2.647-2.646 2.646a.5.5 0 0 1-.708-.707L11.293 8H2a.5.5 0 0 1 0-1h9.293L10.146 5.354a.5.5 0 0 1 0-.708z'/></svg><br>or<br><svg class='left-arrow' style='width: 48px; height: 48px;' xmlns='http://www.w3.org/2000/svg' viewBox='0 0 16 16'><path fill-rule='evenodd' d='M5.854 4.646a.5.5 0 0 0-.708 0L2.5 7.293l2.646 2.647a.5.5 0 0 0 .708-.707L4.707 8H14a.5.5 0 0 0 0-1H4.707l1.147-1.146a.5.5 0 0 0 0-.708z'/></svg>Press the <b>Left Arrow</b> on your keyboard to skip the trial</p>\n</div>\n","response":"ArrowRight","trial_type":"html-keyboard-response","trial_index":143,"plugin_version":null,"time_elapsed":822402,"accepted":true},{"blockType":"wideasync","task":"block","randomDelay":[0,1000],"bounds":[42.02438860133509,62.02438860133509],"reward":25,"tapCount":0,"startTime":0,"endTime":0,"mercuryHeight":0,"error":"","errorOccurred":false,"keysReleasedFlag":false,"success":true,"keyTappedEarlyFlag":false,"keysState":{"a":true,"w":true,"e":true," ":true,"arrowright":true},"trial_type":"task-plugin","trial_index":144,"plugin_version":"1.0","time_elapsed":822404,"medianTaps":{"calibrationPart1Median":33,"calibrationPart2Median":34}},{"task":"success","success":true,"trial_type":"success-screen-plugin","trial_index":146,"plugin_version":null,"time_elapsed":822909},{"trial_type":"html-keyboard-response","trial_index":147,"plugin_version":null,"time_elapsed":823517},{"task":"accept","reward":11,"bounds":[46.773361948074594,66.7733619480746],"originalBounds":[45,65],"delay":[0,1000],"rt":1972,"stimulus":"\n<div\n  id=\"acceptance-container\"\n  style=\"display: flex; flex-direction: column; justify-content: center; align-items: center; height: 100%;\"\n>\n  <div\n    id=\"thermometer-container\"\n    style=\"display: flex; justify-content: center; align-items: center; height: 300px; width: 100px; border: 1px solid #000; margin-bottom: 10px; box-sizing: border-box;\"\n  >\n    <div\n      id=\"thermometer\"\n      style=\"position: relative; width: 100%; height: 100%; background-color: #e0e0e0; box-sizing: border-box;\"\n    >\n      <div\n        id=\"blue-area\"\n        style=\"position: absolute; bottom: 46.773361948074594%; height: 20%; width: 100%; background-color: blue;\"\n      ></div>\n      <div\n        id=\"lower-bound\"\n        style=\"position: absolute; bottom: 46.773361948074594%; width: 100%; height: 2px; background-color: black;\"\n      ></div>\n      <div\n        id=\"upper-bound\"\n        style=\"position: absolute; bottom: 66.7733619480746%; width: 100%; height: 2px; background-color: black;\"\n      ></div>\n    </div>\n  </div>\n  <p style=\"text-align: center;\">Reward:  11 points</p>\n  <p style=\"text-align: center;\"><br>Press the <b>Right Arrow</b> on your keyboard to accept the trial <svg class='right-arrow' style='width: 48px; height: 48px;'xmlns='http://www.w3.org/2000/svg' viewBox='0 0 16 16'><path fill-rule='evenodd' d='M10.146 4.646a.5.5 0 0 1 .708 0l2.646 2.647-2.646 2.646a.5.5 0 0 1-.708-.707L11.293 8H2a.5.5 0 0 1 0-1h9.293L10.146 5.354a.5.5 0 0 1 0-.708z'/></svg><br>or<br><svg class='left-arrow' style='width: 48px; height: 48px;' xmlns='http://www.w3.org/2000/svg' viewBox='0 0 16 16'><path fill-rule='evenodd' d='M5.854 4.646a.5.5 0 0 0-.708 0L2.5 7.293l2.646 2.647a.5.5 0 0 0 .708-.707L4.707 8H14a.5.5 0 0 0 0-1H4.707l1.147-1.146a.5.5 0 0 0 0-.708z'/></svg>Press the <b>Left Arrow</b> on your keyboard to skip the trial</p>\n</div>\n","response":"ArrowRight","trial_type":"html-keyboard-response","trial_index":150,"plugin_version":null,"time_elapsed":825491,"accepted":true},{"task":"countdown","keyTappedEarlyFlag":false,"trial_type":"countdown-trial","trial_index":151,"plugin_version":"1.0","time_elapsed":830340},{"blockType":"wideasync","task":"block","randomDelay":[0,1000],"bounds":[46.773361948074594,66.7733619480746],"reward":11,"tapCount":27,"startTime":830341,"endTime":837342,"mercuryHeight":44.47058823529416,"error":"","errorOccurred":false,"keysReleasedFlag":false,"success":false,"keyTappedEarlyFlag":false,"keysState":{"a":true,"w":true,"e":true," ":true,"arrowright":true},"trial_type":"task-plugin","trial_index":152,"plugin_version":"1.0","time_elapsed":837343,"medianTaps":{"calibrationPart1Median":33,"calibrationPart2Median":34}},{"errorOccurred":false,"trial_type":"release-keys","trial_index":153,"plugin_version":"1.0","time_elapsed":837814},{"task":"success","success":false,"trial_type":"success-screen-plugin","trial_index":154,"plugin_version":null,"time_elapsed":838315},{"trial_type":"html-keyboard-response","trial_index":156,"plugin_version":null,"time_elapsed":841652},{"task":"accept","reward":26,"bounds":[72.99497085498832,92.99497085498832],"originalBounds":[70,90],"delay":[0,1000],"rt":2405,"stimulus":"\n<div\n  id=\"acceptance-container\"\n  style=\"display: flex; flex-direction: column; justify-content: center; align-items: center; height: 100%;\"\n>\n  <div\n    id=\"thermometer-container\"\n    style=\"display: flex; justify-content: center; align-items: center; height: 300px; width: 100px; border: 1px solid #000; margin-bottom: 10px; box-sizing: border-box;\"\n  >\n    <div\n      id=\"thermometer\"\n      style=\"position: relative; width: 100%; height: 100%; background-color: #e0e0e0; box-sizing: border-box;\"\n    >\n      <div\n        id=\"blue-area\"\n        style=\"position: absolute; bottom: 72.99497085498832%; height: 20%; width: 100%; background-color: blue;\"\n      ></div>\n      <div\n        id=\"lower-bound\"\n        style=\"position: absolute; bottom: 72.99497085498832%; width: 100%; height: 2px; background-color: black;\"\n      ></div>\n      <div\n        id=\"upper-bound\"\n        style=\"position: absolute; bottom: 92.99497085498832%; width: 100%; height: 2px; background-color: black;\"\n      ></div>\n    </div>\n  </div>\n  <p style=\"text-align: center;\">Reward:  26 points</p>\n  <p style=\"text-align: center;\"><br>Press the <b>Right Arrow</b> on your keyboard to accept the trial <svg class='right-arrow' style='width: 48px; height: 48px;'xmlns='http://www.w3.org/2000/svg' viewBox='0 0 16 16'><path fill-rule='evenodd' d='M10.146 4.646a.5.5 0 0 1 .708 0l2.646 2.647-2.646 2.646a.5.5 0 0 1-.708-.707L11.293 8H2a.5.5 0 0 1 0-1h9.293L10.146 5.354a.5.5 0 0 1 0-.708z'/></svg><br>or<br><svg class='left-arrow' style='width: 48px; height: 48px;' xmlns='http://www.w3.org/2000/svg' viewBox='0 0 16 16'><path fill-rule='evenodd' d='M5.854 4.646a.5.5 0 0 0-.708 0L2.5 7.293l2.646 2.647a.5.5 0 0 0 .708-.707L4.707 8H14a.5.5 0 0 0 0-1H4.707l1.147-1.146a.5.5 0 0 0 0-.708z'/></svg>Press the <b>Left Arrow</b> on your keyboard to skip the trial</p>\n</div>\n","response":"ArrowRight","trial_type":"html-keyboard-response","trial_index":158,"plugin_version":null,"time_elapsed":844059,"accepted":true},{"blockType":"wideasync","task":"block","randomDelay":[0,1000],"bounds":[72.99497085498832,92.99497085498832],"reward":26,"tapCount":0,"startTime":0,"endTime":0,"mercuryHeight":0,"error":"","errorOccurred":false,"keysReleasedFlag":false,"success":true,"keyTappedEarlyFlag":false,"keysState":{"a":true,"w":true,"e":true," ":true,"arrowright":true},"trial_type":"task-plugin","trial_index":159,"plugin_version":"1.0","time_elapsed":844060,"medianTaps":{"calibrationPart1Median":33,"calibrationPart2Median":34}},{"task":"success","success":true,"trial_type":"success-screen-plugin","trial_index":161,"plugin_version":null,"time_elapsed":844567},{"trial_type":"html-keyboard-response","trial_index":162,"plugin_version":null,"time_elapsed":844771},{"task":"accept","reward":1,"bounds":[18.15973975404974,38.15973975404974],"originalBounds":[20,40],"delay":[0,1000],"rt":918,"stimulus":"\n<div\n  id=\"acceptance-container\"\n  style=\"display: flex; flex-direction: column; justify-content: center; align-items: center; height: 100%;\"\n>\n  <div\n    id=\"thermometer-container\"\n    style=\"display: flex; justify-content: center; align-items: center; height: 300px; width: 100px; border: 1px solid #000; margin-bottom: 10px; box-sizing: border-box;\"\n  >\n    <div\n      id=\"thermometer\"\n      style=\"position: relative; width: 100%; height: 100%; background-color: #e0e0e0; box-sizing: border-box;\"\n    >\n      <div\n        id=\"blue-area\"\n        style=\"position: absolute; bottom: 18.15973975404974%; height: 20%; width: 100%; background-color: blue;\"\n      ></div>\n      <div\n        id=\"lower-bound\"\n        style=\"position: absolute; bottom: 18.15973975404974%; width: 100%; height: 2px; background-color: black;\"\n      ></div>\n      <div\n        id=\"upper-bound\"\n        style=\"position: absolute; bottom: 38.15973975404974%; width: 100%; height: 2px; background-color: black;\"\n      ></div>\n    </div>\n  </div>\n  <p style=\"text-align: center;\">Reward:  1 points</p>\n  <p style=\"text-align: center;\"><br>Press the <b>Right Arrow</b> on your keyboard to accept the trial <svg class='right-arrow' style='width: 48px; height: 48px;'xmlns='http://www.w3.org/2000/svg' viewBox='0 0 16 16'><path fill-rule='evenodd' d='M10.146 4.646a.5.5 0 0 1 .708 0l2.646 2.647-2.646 2.646a.5.5 0 0 1-.708-.707L11.293 8H2a.5.5 0 0 1 0-1h9.293L10.146 5.354a.5.5 0 0 1 0-.708z'/></svg><br>or<br><svg class='left-arrow' style='width: 48px; height: 48px;' xmlns='http://www.w3.org/2000/svg' viewBox='0 0 16 16'><path fill-rule='evenodd' d='M5.854 4.646a.5.5 0 0 0-.708 0L2.5 7.293l2.646 2.647a.5.5 0 0 0 .708-.707L4.707 8H14a.5.5 0 0 0 0-1H4.707l1.147-1.146a.5.5 0 0 0 0-.708z'/></svg>Press the <b>Left Arrow</b> on your keyboard to skip the trial</p>\n</div>\n","response":"ArrowLeft","trial_type":"html-keyboard-response","trial_index":165,"plugin_version":null,"time_elapsed":845690,"accepted":false},{"trial_type":"html-keyboard-response","trial_index":167,"plugin_version":null,"time_elapsed":845894},{"task":"accept","reward":9,"bounds":[67.98701029056673,87.98701029056673],"originalBounds":[70,90],"delay":[0,1000],"rt":925,"stimulus":"\n<div\n  id=\"acceptance-container\"\n  style=\"display: flex; flex-direction: column; justify-content: center; align-items: center; height: 100%;\"\n>\n  <div\n    id=\"thermometer-container\"\n    style=\"display: flex; justify-content: center; align-items: center; height: 300px; width: 100px; border: 1px solid #000; margin-bottom: 10px; box-sizing: border-box;\"\n  >\n    <div\n      id=\"thermometer\"\n      style=\"position: relative; width: 100%; height: 100%; background-color: #e0e0e0; box-sizing: border-box;\"\n    >\n      <div\n        id=\"blue-area\"\n        style=\"position: absolute; bottom: 67.98701029056673%; height: 20%; width: 100%; background-color: blue;\"\n      ></div>\n      <div\n        id=\"lower-bound\"\n        style=\"position: absolute; bottom: 67.98701029056673%; width: 100%; height: 2px; background-color: black;\"\n      ></div>\n      <div\n        id=\"upper-bound\"\n        style=\"position: absolute; bottom: 87.98701029056673%; width: 100%; height: 2px; background-color: black;\"\n      ></div>\n    </div>\n  </div>\n  <p style=\"text-align: center;\">Reward:  9 points</p>\n  <p style=\"text-align: center;\"><br>Press the <b>Right Arrow</b> on your keyboard to accept the trial <svg class='right-arrow' style='width: 48px; height: 48px;'xmlns='http://www.w3.org/2000/svg' viewBox='0 0 16 16'><path fill-rule='evenodd' d='M10.146 4.646a.5.5 0 0 1 .708 0l2.646 2.647-2.646 2.646a.5.5 0 0 1-.708-.707L11.293 8H2a.5.5 0 0 1 0-1h9.293L10.146 5.354a.5.5 0 0 1 0-.708z'/></svg><br>or<br><svg class='left-arrow' style='width: 48px; height: 48px;' xmlns='http://www.w3.org/2000/svg' viewBox='0 0 16 16'><path fill-rule='evenodd' d='M5.854 4.646a.5.5 0 0 0-.708 0L2.5 7.293l2.646 2.647a.5.5 0 0 0 .708-.707L4.707 8H14a.5.5 0 0 0 0-1H4.707l1.147-1.146a.5.5 0 0 0 0-.708z'/></svg>Press the <b>Left Arrow</b> on your keyboard to skip the trial</p>\n</div>\n","response":"ArrowLeft","trial_type":"html-keyboard-response","trial_index":168,"plugin_version":null,"time_elapsed":846821,"accepted":false},{"trial_type":"html-keyboard-response","trial_index":170,"plugin_version":null,"time_elapsed":847225},{"task":"accept","reward":2,"bounds":[72.2027217296602,92.2027217296602],"originalBounds":[70,90],"delay":[0,1000],"rt":736,"stimulus":"\n<div\n  id=\"acceptance-container\"\n  style=\"display: flex; flex-direction: column; justify-content: center; align-items: center; height: 100%;\"\n>\n  <div\n    id=\"thermometer-container\"\n    style=\"display: flex; justify-content: center; align-items: center; height: 300px; width: 100px; border: 1px solid #000; margin-bottom: 10px; box-sizing: border-box;\"\n  >\n    <div\n      id=\"thermometer\"\n      style=\"position: relative; width: 100%; height: 100%; background-color: #e0e0e0; box-sizing: border-box;\"\n    >\n      <div\n        id=\"blue-area\"\n        style=\"position: absolute; bottom: 72.2027217296602%; height: 20%; width: 100%; background-color: blue;\"\n      ></div>\n      <div\n        id=\"lower-bound\"\n        style=\"position: absolute; bottom: 72.2027217296602%; width: 100%; height: 2px; background-color: black;\"\n      ></div>\n      <div\n        id=\"upper-bound\"\n        style=\"position: absolute; bottom: 92.2027217296602%; width: 100%; height: 2px; background-color: black;\"\n      ></div>\n    </div>\n  </div>\n  <p style=\"text-align: center;\">Reward:  2 points</p>\n  <p style=\"text-align: center;\"><br>Press the <b>Right Arrow</b> on your keyboard to accept the trial <svg class='right-arrow' style='width: 48px; height: 48px;'xmlns='http://www.w3.org/2000/svg' viewBox='0 0 16 16'><path fill-rule='evenodd' d='M10.146 4.646a.5.5 0 0 1 .708 0l2.646 2.647-2.646 2.646a.5.5 0 0 1-.708-.707L11.293 8H2a.5.5 0 0 1 0-1h9.293L10.146 5.354a.5.5 0 0 1 0-.708z'/></svg><br>or<br><svg class='left-arrow' style='width: 48px; height: 48px;' xmlns='http://www.w3.org/2000/svg' viewBox='0 0 16 16'><path fill-rule='evenodd' d='M5.854 4.646a.5.5 0 0 0-.708 0L2.5 7.293l2.646 2.647a.5.5 0 0 0 .708-.707L4.707 8H14a.5.5 0 0 0 0-1H4.707l1.147-1.146a.5.5 0 0 0 0-.708z'/></svg>Press the <b>Left Arrow</b> on your keyboard to skip the trial</p>\n</div>\n","response":"ArrowLeft","trial_type":"html-keyboard-response","trial_index":171,"plugin_version":null,"time_elapsed":847962,"accepted":false},{"trial_type":"html-keyboard-response","trial_index":173,"plugin_version":null,"time_elapsed":848165},{"task":"accept","reward":24,"bounds":[21.45920059088094,41.45920059088094],"originalBounds":[20,40],"delay":[0,1000],"rt":948,"stimulus":"\n<div\n  id=\"acceptance-container\"\n  style=\"display: flex; flex-direction: column; justify-content: center; align-items: center; height: 100%;\"\n>\n  <div\n    id=\"thermometer-container\"\n    style=\"display: flex; justify-content: center; align-items: center; height: 300px; width: 100px; border: 1px solid #000; margin-bottom: 10px; box-sizing: border-box;\"\n  >\n    <div\n      id=\"thermometer\"\n      style=\"position: relative; width: 100%; height: 100%; background-color: #e0e0e0; box-sizing: border-box;\"\n    >\n      <div\n        id=\"blue-area\"\n        style=\"position: absolute; bottom: 21.45920059088094%; height: 20%; width: 100%; background-color: blue;\"\n      ></div>\n      <div\n        id=\"lower-bound\"\n        style=\"position: absolute; bottom: 21.45920059088094%; width: 100%; height: 2px; background-color: black;\"\n      ></div>\n      <div\n        id=\"upper-bound\"\n        style=\"position: absolute; bottom: 41.45920059088094%; width: 100%; height: 2px; background-color: black;\"\n      ></div>\n    </div>\n  </div>\n  <p style=\"text-align: center;\">Reward:  24 points</p>\n  <p style=\"text-align: center;\"><br>Press the <b>Right Arrow</b> on your keyboard to accept the trial <svg class='right-arrow' style='width: 48px; height: 48px;'xmlns='http://www.w3.org/2000/svg' viewBox='0 0 16 16'><path fill-rule='evenodd' d='M10.146 4.646a.5.5 0 0 1 .708 0l2.646 2.647-2.646 2.646a.5.5 0 0 1-.708-.707L11.293 8H2a.5.5 0 0 1 0-1h9.293L10.146 5.354a.5.5 0 0 1 0-.708z'/></svg><br>or<br><svg class='left-arrow' style='width: 48px; height: 48px;' xmlns='http://www.w3.org/2000/svg' viewBox='0 0 16 16'><path fill-rule='evenodd' d='M5.854 4.646a.5.5 0 0 0-.708 0L2.5 7.293l2.646 2.647a.5.5 0 0 0 .708-.707L4.707 8H14a.5.5 0 0 0 0-1H4.707l1.147-1.146a.5.5 0 0 0 0-.708z'/></svg>Press the <b>Left Arrow</b> on your keyboard to skip the trial</p>\n</div>\n","response":"ArrowRight","trial_type":"html-keyboard-response","trial_index":174,"plugin_version":null,"time_elapsed":849115,"accepted":true},{"task":"countdown","keyTappedEarlyFlag":false,"trial_type":"countdown-trial","trial_index":175,"plugin_version":"1.0","time_elapsed":853700},{"blockType":"wideasync","task":"block","randomDelay":[0,1000],"bounds":[21.45920059088094,41.45920059088094],"reward":24,"tapCount":25,"startTime":853702,"endTime":860703,"mercuryHeight":37.41176470588235,"error":"","errorOccurred":false,"keysReleasedFlag":false,"success":true,"keyTappedEarlyFlag":false,"keysState":{"a":true,"w":true,"e":true," ":true,"arrowright":true},"trial_type":"task-plugin","trial_index":176,"plugin_version":"1.0","time_elapsed":860704,"medianTaps":{"calibrationPart1Median":33,"calibrationPart2Median":34}},{"errorOccurred":false,"trial_type":"release-keys","trial_index":177,"plugin_version":"1.0","time_elapsed":861215},{"task":"success","success":true,"trial_type":"success-screen-plugin","trial_index":178,"plugin_version":null,"time_elapsed":861716},{"trial_type":"html-keyboard-response","trial_index":180,"plugin_version":null,"time_elapsed":864850},{"task":"accept","reward":9,"bounds":[20.84722848454053,40.84722848454053],"originalBounds":[20,40],"delay":[0,1000],"rt":1470,"stimulus":"\n<div\n  id=\"acceptance-container\"\n  style=\"display: flex; flex-direction: column; justify-content: center; align-items: center; height: 100%;\"\n>\n  <div\n    id=\"thermometer-container\"\n    style=\"display: flex; justify-content: center; align-items: center; height: 300px; width: 100px; border: 1px solid #000; margin-bottom: 10px; box-sizing: border-box;\"\n  >\n    <div\n      id=\"thermometer\"\n      style=\"position: relative; width: 100%; height: 100%; background-color: #e0e0e0; box-sizing: border-box;\"\n    >\n      <div\n        id=\"blue-area\"\n        style=\"position: absolute; bottom: 20.84722848454053%; height: 20%; width: 100%; background-color: blue;\"\n      ></div>\n      <div\n        id=\"lower-bound\"\n        style=\"position: absolute; bottom: 20.84722848454053%; width: 100%; height: 2px; background-color: black;\"\n      ></div>\n      <div\n        id=\"upper-bound\"\n        style=\"position: absolute; bottom: 40.84722848454053%; width: 100%; height: 2px; background-color: black;\"\n      ></div>\n    </div>\n  </div>\n  <p style=\"text-align: center;\">Reward:  9 points</p>\n  <p style=\"text-align: center;\"><br>Press the <b>Right Arrow</b> on your keyboard to accept the trial <svg class='right-arrow' style='width: 48px; height: 48px;'xmlns='http://www.w3.org/2000/svg' viewBox='0 0 16 16'><path fill-rule='evenodd' d='M10.146 4.646a.5.5 0 0 1 .708 0l2.646 2.647-2.646 2.646a.5.5 0 0 1-.708-.707L11.293 8H2a.5.5 0 0 1 0-1h9.293L10.146 5.354a.5.5 0 0 1 0-.708z'/></svg><br>or<br><svg class='left-arrow' style='width: 48px; height: 48px;' xmlns='http://www.w3.org/2000/svg' viewBox='0 0 16 16'><path fill-rule='evenodd' d='M5.854 4.646a.5.5 0 0 0-.708 0L2.5 7.293l2.646 2.647a.5.5 0 0 0 .708-.707L4.707 8H14a.5.5 0 0 0 0-1H4.707l1.147-1.146a.5.5 0 0 0 0-.708z'/></svg>Press the <b>Left Arrow</b> on your keyboard to skip the trial</p>\n</div>\n","response":"ArrowRight","trial_type":"html-keyboard-response","trial_index":182,"plugin_version":null,"time_elapsed":866323,"accepted":true},{"blockType":"wideasync","task":"block","randomDelay":[0,1000],"bounds":[20.84722848454053,40.84722848454053],"reward":9,"tapCount":0,"startTime":0,"endTime":0,"mercuryHeight":0,"error":"","errorOccurred":false,"keysReleasedFlag":false,"success":true,"keyTappedEarlyFlag":false,"keysState":{"a":true,"w":true,"e":true," ":true,"arrowright":true},"trial_type":"task-plugin","trial_index":183,"plugin_version":"1.0","time_elapsed":866324,"medianTaps":{"calibrationPart1Median":33,"calibrationPart2Median":34}},{"task":"success","success":true,"trial_type":"success-screen-plugin","trial_index":185,"plugin_version":null,"time_elapsed":866830},{"trial_type":"html-keyboard-response","trial_index":186,"plugin_version":null,"time_elapsed":867136},{"task":"accept","reward":25,"bounds":[43.02703080211571,63.02703080211571],"originalBounds":[45,65],"delay":[0,1000],"rt":997,"stimulus":"\n<div\n  id=\"acceptance-container\"\n  style=\"display: flex; flex-direction: column; justify-content: center; align-items: center; height: 100%;\"\n>\n  <div\n    id=\"thermometer-container\"\n    style=\"display: flex; justify-content: center; align-items: center; height: 300px; width: 100px; border: 1px solid #000; margin-bottom: 10px; box-sizing: border-box;\"\n  >\n    <div\n      id=\"thermometer\"\n      style=\"position: relative; width: 100%; height: 100%; background-color: #e0e0e0; box-sizing: border-box;\"\n    >\n      <div\n        id=\"blue-area\"\n        style=\"position: absolute; bottom: 43.02703080211571%; height: 20%; width: 100%; background-color: blue;\"\n      ></div>\n      <div\n        id=\"lower-bound\"\n        style=\"position: absolute; bottom: 43.02703080211571%; width: 100%; height: 2px; background-color: black;\"\n      ></div>\n      <div\n        id=\"upper-bound\"\n        style=\"position: absolute; bottom: 63.02703080211571%; width: 100%; height: 2px; background-color: black;\"\n      ></div>\n    </div>\n  </div>\n  <p style=\"text-align: center;\">Reward:  25 points</p>\n  <p style=\"text-align: center;\"><br>Press the <b>Right Arrow</b> on your keyboard to accept the trial <svg class='right-arrow' style='width: 48px; height: 48px;'xmlns='http://www.w3.org/2000/svg' viewBox='0 0 16 16'><path fill-rule='evenodd' d='M10.146 4.646a.5.5 0 0 1 .708 0l2.646 2.647-2.646 2.646a.5.5 0 0 1-.708-.707L11.293 8H2a.5.5 0 0 1 0-1h9.293L10.146 5.354a.5.5 0 0 1 0-.708z'/></svg><br>or<br><svg class='left-arrow' style='width: 48px; height: 48px;' xmlns='http://www.w3.org/2000/svg' viewBox='0 0 16 16'><path fill-rule='evenodd' d='M5.854 4.646a.5.5 0 0 0-.708 0L2.5 7.293l2.646 2.647a.5.5 0 0 0 .708-.707L4.707 8H14a.5.5 0 0 0 0-1H4.707l1.147-1.146a.5.5 0 0 0 0-.708z'/></svg>Press the <b>Left Arrow</b> on your keyboard to skip the trial</p>\n</div>\n","response":"ArrowRight","trial_type":"html-keyboard-response","trial_index":189,"plugin_version":null,"time_elapsed":868135,"accepted":true},{"blockType":"wideasync","task":"block","randomDelay":[0,1000],"bounds":[43.02703080211571,63.02703080211571],"reward":25,"tapCount":0,"startTime":0,"endTime":0,"mercuryHeight":0,"error":"","errorOccurred":false,"keysReleasedFlag":false,"success":true,"keyTappedEarlyFlag":false,"keysState":{"a":true,"w":true,"e":true," ":true,"arrowright":true},"trial_type":"task-plugin","trial_index":190,"plugin_version":"1.0","time_elapsed":868136,"medianTaps":{"calibrationPart1Median":33,"calibrationPart2Median":34}},{"task":"success","success":true,"trial_type":"success-screen-plugin","trial_index":192,"plugin_version":null,"time_elapsed":868640},{"trial_type":"html-keyboard-response","trial_index":193,"plugin_version":null,"time_elapsed":868945},{"task":"accept","reward":1,"bounds":[45.63972645483228,65.63972645483227],"originalBounds":[45,65],"delay":[0,1000],"rt":719,"stimulus":"\n<div\n  id=\"acceptance-container\"\n  style=\"display: flex; flex-direction: column; justify-content: center; align-items: center; height: 100%;\"\n>\n  <div\n    id=\"thermometer-container\"\n    style=\"display: flex; justify-content: center; align-items: center; height: 300px; width: 100px; border: 1px solid #000; margin-bottom: 10px; box-sizing: border-box;\"\n  >\n    <div\n      id=\"thermometer\"\n      style=\"position: relative; width: 100%; height: 100%; background-color: #e0e0e0; box-sizing: border-box;\"\n    >\n      <div\n        id=\"blue-area\"\n        style=\"position: absolute; bottom: 45.63972645483228%; height: 19.999999999999993%; width: 100%; background-color: blue;\"\n      ></div>\n      <div\n        id=\"lower-bound\"\n        style=\"position: absolute; bottom: 45.63972645483228%; width: 100%; height: 2px; background-color: black;\"\n      ></div>\n      <div\n        id=\"upper-bound\"\n        style=\"position: absolute; bottom: 65.63972645483227%; width: 100%; height: 2px; background-color: black;\"\n      ></div>\n    </div>\n  </div>\n  <p style=\"text-align: center;\">Reward:  1 points</p>\n  <p style=\"text-align: center;\"><br>Press the <b>Right Arrow</b> on your keyboard to accept the trial <svg class='right-arrow' style='width: 48px; height: 48px;'xmlns='http://www.w3.org/2000/svg' viewBox='0 0 16 16'><path fill-rule='evenodd' d='M10.146 4.646a.5.5 0 0 1 .708 0l2.646 2.647-2.646 2.646a.5.5 0 0 1-.708-.707L11.293 8H2a.5.5 0 0 1 0-1h9.293L10.146 5.354a.5.5 0 0 1 0-.708z'/></svg><br>or<br><svg class='left-arrow' style='width: 48px; height: 48px;' xmlns='http://www.w3.org/2000/svg' viewBox='0 0 16 16'><path fill-rule='evenodd' d='M5.854 4.646a.5.5 0 0 0-.708 0L2.5 7.293l2.646 2.647a.5.5 0 0 0 .708-.707L4.707 8H14a.5.5 0 0 0 0-1H4.707l1.147-1.146a.5.5 0 0 0 0-.708z'/></svg>Press the <b>Left Arrow</b> on your keyboard to skip the trial</p>\n</div>\n","response":"ArrowLeft","trial_type":"html-keyboard-response","trial_index":196,"plugin_version":null,"time_elapsed":869666,"accepted":false},{"trial_type":"html-keyboard-response","trial_index":198,"plugin_version":null,"time_elapsed":869969},{"task":"accept","reward":9,"bounds":[20.616707265278393,40.61670726527839],"originalBounds":[20,40],"delay":[0,1000],"rt":1375,"stimulus":"\n<div\n  id=\"acceptance-container\"\n  style=\"display: flex; flex-direction: column; justify-content: center; align-items: center; height: 100%;\"\n>\n  <div\n    id=\"thermometer-container\"\n    style=\"display: flex; justify-content: center; align-items: center; height: 300px; width: 100px; border: 1px solid #000; margin-bottom: 10px; box-sizing: border-box;\"\n  >\n    <div\n      id=\"thermometer\"\n      style=\"position: relative; width: 100%; height: 100%; background-color: #e0e0e0; box-sizing: border-box;\"\n    >\n      <div\n        id=\"blue-area\"\n        style=\"position: absolute; bottom: 20.616707265278393%; height: 20%; width: 100%; background-color: blue;\"\n      ></div>\n      <div\n        id=\"lower-bound\"\n        style=\"position: absolute; bottom: 20.616707265278393%; width: 100%; height: 2px; background-color: black;\"\n      ></div>\n      <div\n        id=\"upper-bound\"\n        style=\"position: absolute; bottom: 40.61670726527839%; width: 100%; height: 2px; background-color: black;\"\n      ></div>\n    </div>\n  </div>\n  <p style=\"text-align: center;\">Reward:  9 points</p>\n  <p style=\"text-align: center;\"><br>Press the <b>Right Arrow</b> on your keyboard to accept the trial <svg class='right-arrow' style='width: 48px; height: 48px;'xmlns='http://www.w3.org/2000/svg' viewBox='0 0 16 16'><path fill-rule='evenodd' d='M10.146 4.646a.5.5 0 0 1 .708 0l2.646 2.647-2.646 2.646a.5.5 0 0 1-.708-.707L11.293 8H2a.5.5 0 0 1 0-1h9.293L10.146 5.354a.5.5 0 0 1 0-.708z'/></svg><br>or<br><svg class='left-arrow' style='width: 48px; height: 48px;' xmlns='http://www.w3.org/2000/svg' viewBox='0 0 16 16'><path fill-rule='evenodd' d='M5.854 4.646a.5.5 0 0 0-.708 0L2.5 7.293l2.646 2.647a.5.5 0 0 0 .708-.707L4.707 8H14a.5.5 0 0 0 0-1H4.707l1.147-1.146a.5.5 0 0 0 0-.708z'/></svg>Press the <b>Left Arrow</b> on your keyboard to skip the trial</p>\n</div>\n","response":"ArrowRight","trial_type":"html-keyboard-response","trial_index":199,"plugin_version":null,"time_elapsed":871346,"accepted":true},{"blockType":"wideasync","task":"block","randomDelay":[0,1000],"bounds":[20.616707265278393,40.61670726527839],"reward":9,"tapCount":0,"startTime":0,"endTime":0,"mercuryHeight":0,"error":"","errorOccurred":false,"keysReleasedFlag":false,"success":true,"keyTappedEarlyFlag":false,"keysState":{"a":true,"w":true,"e":true," ":true,"arrowright":true},"trial_type":"task-plugin","trial_index":200,"plugin_version":"1.0","time_elapsed":871347,"medianTaps":{"calibrationPart1Median":33,"calibrationPart2Median":34}},{"task":"success","success":true,"trial_type":"success-screen-plugin","trial_index":202,"plugin_version":null,"time_elapsed":871850},{"trial_type":"html-keyboard-response","trial_index":203,"plugin_version":null,"time_elapsed":872255},{"task":"accept","reward":26,"bounds":[21.371008252252253,41.37100825225225],"originalBounds":[20,40],"delay":[0,1000],"rt":721,"stimulus":"\n<div\n  id=\"acceptance-container\"\n  style=\"display: flex; flex-direction: column; justify-content: center; align-items: center; height: 100%;\"\n>\n  <div\n    id=\"thermometer-container\"\n    style=\"display: flex; justify-content: center; align-items: center; height: 300px; width: 100px; border: 1px solid #000; margin-bottom: 10px; box-sizing: border-box;\"\n  >\n    <div\n      id=\"thermometer\"\n      style=\"position: relative; width: 100%; height: 100%; background-color: #e0e0e0; box-sizing: border-box;\"\n    >\n      <div\n        id=\"blue-area\"\n        style=\"position: absolute; bottom: 21.371008252252253%; height: 20%; width: 100%; background-color: blue;\"\n      ></div>\n      <div\n        id=\"lower-bound\"\n        style=\"position: absolute; bottom: 21.371008252252253%; width: 100%; height: 2px; background-color: black;\"\n      ></div>\n      <div\n        id=\"upper-bound\"\n        style=\"position: absolute; bottom: 41.37100825225225%; width: 100%; height: 2px; background-color: black;\"\n      ></div>\n    </div>\n  </div>\n  <p style=\"text-align: center;\">Reward:  26 points</p>\n  <p style=\"text-align: center;\"><br>Press the <b>Right Arrow</b> on your keyboard to accept the trial <svg class='right-arrow' style='width: 48px; height: 48px;'xmlns='http://www.w3.org/2000/svg' viewBox='0 0 16 16'><path fill-rule='evenodd' d='M10.146 4.646a.5.5 0 0 1 .708 0l2.646 2.647-2.646 2.646a.5.5 0 0 1-.708-.707L11.293 8H2a.5.5 0 0 1 0-1h9.293L10.146 5.354a.5.5 0 0 1 0-.708z'/></svg><br>or<br><svg class='left-arrow' style='width: 48px; height: 48px;' xmlns='http://www.w3.org/2000/svg' viewBox='0 0 16 16'><path fill-rule='evenodd' d='M5.854 4.646a.5.5 0 0 0-.708 0L2.5 7.293l2.646 2.647a.5.5 0 0 0 .708-.707L4.707 8H14a.5.5 0 0 0 0-1H4.707l1.147-1.146a.5.5 0 0 0 0-.708z'/></svg>Press the <b>Left Arrow</b> on your keyboard to skip the trial</p>\n</div>\n","response":"ArrowRight","trial_type":"html-keyboard-response","trial_index":206,"plugin_version":null,"time_elapsed":872978,"accepted":true},{"task":"countdown","keyTappedEarlyFlag":false,"trial_type":"countdown-trial","trial_index":207,"plugin_version":"1.0","time_elapsed":877436},{"blockType":"wideasync","task":"block","randomDelay":[0,1000],"bounds":[21.371008252252253,41.37100825225225],"reward":26,"tapCount":25,"startTime":877437,"endTime":884438,"mercuryHeight":37.411764705882376,"error":"","errorOccurred":false,"keysReleasedFlag":false,"success":true,"keyTappedEarlyFlag":false,"keysState":{"a":true,"w":true,"e":true," ":true,"arrowright":true},"trial_type":"task-plugin","trial_index":208,"plugin_version":"1.0","time_elapsed":884438,"medianTaps":{"calibrationPart1Median":33,"calibrationPart2Median":34}},{"errorOccurred":false,"trial_type":"release-keys","trial_index":209,"plugin_version":"1.0","time_elapsed":885069},{"task":"success","success":true,"trial_type":"success-screen-plugin","trial_index":210,"plugin_version":null,"time_elapsed":885570},{"trial_type":"html-keyboard-response","trial_index":212,"plugin_version":null,"time_elapsed":889113},{"task":"accept","reward":10,"bounds":[51.04125142842953,71.04125142842953],"originalBounds":[45,65],"delay":[0,1000],"rt":2223,"stimulus":"\n<div\n  id=\"acceptance-container\"\n  style=\"display: flex; flex-direction: column; justify-content: center; align-items: center; height: 100%;\"\n>\n  <div\n    id=\"thermometer-container\"\n    style=\"display: flex; justify-content: center; align-items: center; height: 300px; width: 100px; border: 1px solid #000; margin-bottom: 10px; box-sizing: border-box;\"\n  >\n    <div\n      id=\"thermometer\"\n      style=\"position: relative; width: 100%; height: 100%; background-color: #e0e0e0; box-sizing: border-box;\"\n    >\n      <div\n        id=\"blue-area\"\n        style=\"position: absolute; bottom: 51.04125142842953%; height: 20%; width: 100%; background-color: blue;\"\n      ></div>\n      <div\n        id=\"lower-bound\"\n        style=\"position: absolute; bottom: 51.04125142842953%; width: 100%; height: 2px; background-color: black;\"\n      ></div>\n      <div\n        id=\"upper-bound\"\n        style=\"position: absolute; bottom: 71.04125142842953%; width: 100%; height: 2px; background-color: black;\"\n      ></div>\n    </div>\n  </div>\n  <p style=\"text-align: center;\">Reward:  10 points</p>\n  <p style=\"text-align: center;\"><br>Press the <b>Right Arrow</b> on your keyboard to accept the trial <svg class='right-arrow' style='width: 48px; height: 48px;'xmlns='http://www.w3.org/2000/svg' viewBox='0 0 16 16'><path fill-rule='evenodd' d='M10.146 4.646a.5.5 0 0 1 .708 0l2.646 2.647-2.646 2.646a.5.5 0 0 1-.708-.707L11.293 8H2a.5.5 0 0 1 0-1h9.293L10.146 5.354a.5.5 0 0 1 0-.708z'/></svg><br>or<br><svg class='left-arrow' style='width: 48px; height: 48px;' xmlns='http://www.w3.org/2000/svg' viewBox='0 0 16 16'><path fill-rule='evenodd' d='M5.854 4.646a.5.5 0 0 0-.708 0L2.5 7.293l2.646 2.647a.5.5 0 0 0 .708-.707L4.707 8H14a.5.5 0 0 0 0-1H4.707l1.147-1.146a.5.5 0 0 0 0-.708z'/></svg>Press the <b>Left Arrow</b> on your keyboard to skip the trial</p>\n</div>\n","response":"ArrowRight","trial_type":"html-keyboard-response","trial_index":214,"plugin_version":null,"time_elapsed":891338,"accepted":true},{"blockType":"wideasync","task":"block","randomDelay":[0,1000],"bounds":[51.04125142842953,71.04125142842953],"reward":10,"tapCount":0,"startTime":0,"endTime":0,"mercuryHeight":0,"error":"","errorOccurred":false,"keysReleasedFlag":false,"success":true,"keyTappedEarlyFlag":false,"keysState":{"a":true,"w":true,"e":true," ":true,"arrowright":true},"trial_type":"task-plugin","trial_index":215,"plugin_version":"1.0","time_elapsed":891340,"medianTaps":{"calibrationPart1Median":33,"calibrationPart2Median":34}},{"task":"success","success":true,"trial_type":"success-screen-plugin","trial_index":217,"plugin_version":null,"time_elapsed":891847},{"trial_type":"html-keyboard-response","trial_index":218,"plugin_version":null,"time_elapsed":892153},{"task":"accept","reward":3,"bounds":[68.09184468057501,88.09184468057501],"originalBounds":[70,90],"delay":[0,1000],"rt":752,"stimulus":"\n<div\n  id=\"acceptance-container\"\n  style=\"display: flex; flex-direction: column; justify-content: center; align-items: center; height: 100%;\"\n>\n  <div\n    id=\"thermometer-container\"\n    style=\"display: flex; justify-content: center; align-items: center; height: 300px; width: 100px; border: 1px solid #000; margin-bottom: 10px; box-sizing: border-box;\"\n  >\n    <div\n      id=\"thermometer\"\n      style=\"position: relative; width: 100%; height: 100%; background-color: #e0e0e0; box-sizing: border-box;\"\n    >\n      <div\n        id=\"blue-area\"\n        style=\"position: absolute; bottom: 68.09184468057501%; height: 20%; width: 100%; background-color: blue;\"\n      ></div>\n      <div\n        id=\"lower-bound\"\n        style=\"position: absolute; bottom: 68.09184468057501%; width: 100%; height: 2px; background-color: black;\"\n      ></div>\n      <div\n        id=\"upper-bound\"\n        style=\"position: absolute; bottom: 88.09184468057501%; width: 100%; height: 2px; background-color: black;\"\n      ></div>\n    </div>\n  </div>\n  <p style=\"text-align: center;\">Reward:  3 points</p>\n  <p style=\"text-align: center;\"><br>Press the <b>Right Arrow</b> on your keyboard to accept the trial <svg class='right-arrow' style='width: 48px; height: 48px;'xmlns='http://www.w3.org/2000/svg' viewBox='0 0 16 16'><path fill-rule='evenodd' d='M10.146 4.646a.5.5 0 0 1 .708 0l2.646 2.647-2.646 2.646a.5.5 0 0 1-.708-.707L11.293 8H2a.5.5 0 0 1 0-1h9.293L10.146 5.354a.5.5 0 0 1 0-.708z'/></svg><br>or<br><svg class='left-arrow' style='width: 48px; height: 48px;' xmlns='http://www.w3.org/2000/svg' viewBox='0 0 16 16'><path fill-rule='evenodd' d='M5.854 4.646a.5.5 0 0 0-.708 0L2.5 7.293l2.646 2.647a.5.5 0 0 0 .708-.707L4.707 8H14a.5.5 0 0 0 0-1H4.707l1.147-1.146a.5.5 0 0 0 0-.708z'/></svg>Press the <b>Left Arrow</b> on your keyboard to skip the trial</p>\n</div>\n","response":"ArrowLeft","trial_type":"html-keyboard-response","trial_index":221,"plugin_version":null,"time_elapsed":892906,"accepted":false},{"trial_type":"html-keyboard-response","trial_index":223,"plugin_version":null,"time_elapsed":893313},{"task":"accept","reward":25,"bounds":[71.4487953060144,91.4487953060144],"originalBounds":[70,90],"delay":[0,1000],"rt":751,"stimulus":"\n<div\n  id=\"acceptance-container\"\n  style=\"display: flex; flex-direction: column; justify-content: center; align-items: center; height: 100%;\"\n>\n  <div\n    id=\"thermometer-container\"\n    style=\"display: flex; justify-content: center; align-items: center; height: 300px; width: 100px; border: 1px solid #000; margin-bottom: 10px; box-sizing: border-box;\"\n  >\n    <div\n      id=\"thermometer\"\n      style=\"position: relative; width: 100%; height: 100%; background-color: #e0e0e0; box-sizing: border-box;\"\n    >\n      <div\n        id=\"blue-area\"\n        style=\"position: absolute; bottom: 71.4487953060144%; height: 20%; width: 100%; background-color: blue;\"\n      ></div>\n      <div\n        id=\"lower-bound\"\n        style=\"position: absolute; bottom: 71.4487953060144%; width: 100%; height: 2px; background-color: black;\"\n      ></div>\n      <div\n        id=\"upper-bound\"\n        style=\"position: absolute; bottom: 91.4487953060144%; width: 100%; height: 2px; background-color: black;\"\n      ></div>\n    </div>\n  </div>\n  <p style=\"text-align: center;\">Reward:  25 points</p>\n  <p style=\"text-align: center;\"><br>Press the <b>Right Arrow</b> on your keyboard to accept the trial <svg class='right-arrow' style='width: 48px; height: 48px;'xmlns='http://www.w3.org/2000/svg' viewBox='0 0 16 16'><path fill-rule='evenodd' d='M10.146 4.646a.5.5 0 0 1 .708 0l2.646 2.647-2.646 2.646a.5.5 0 0 1-.708-.707L11.293 8H2a.5.5 0 0 1 0-1h9.293L10.146 5.354a.5.5 0 0 1 0-.708z'/></svg><br>or<br><svg class='left-arrow' style='width: 48px; height: 48px;' xmlns='http://www.w3.org/2000/svg' viewBox='0 0 16 16'><path fill-rule='evenodd' d='M5.854 4.646a.5.5 0 0 0-.708 0L2.5 7.293l2.646 2.647a.5.5 0 0 0 .708-.707L4.707 8H14a.5.5 0 0 0 0-1H4.707l1.147-1.146a.5.5 0 0 0 0-.708z'/></svg>Press the <b>Left Arrow</b> on your keyboard to skip the trial</p>\n</div>\n","response":"ArrowRight","trial_type":"html-keyboard-response","trial_index":224,"plugin_version":null,"time_elapsed":894066,"accepted":true},{"task":"countdown","keyTappedEarlyFlag":false,"trial_type":"countdown-trial","trial_index":225,"plugin_version":"1.0","time_elapsed":898771},{"blockType":"wideasync","task":"block","randomDelay":[0,1000],"bounds":[71.4487953060144,91.4487953060144],"reward":25,"tapCount":33,"startTime":898772,"endTime":905773,"mercuryHeight":86.82352941176477,"error":"","errorOccurred":false,"keysReleasedFlag":false,"success":true,"keyTappedEarlyFlag":false,"keysState":{"a":true,"w":true,"e":true," ":true,"arrowright":true},"trial_type":"task-plugin","trial_index":226,"plugin_version":"1.0","time_elapsed":905774,"medianTaps":{"calibrationPart1Median":33,"calibrationPart2Median":34}},{"errorOccurred":false,"trial_type":"release-keys","trial_index":227,"plugin_version":"1.0","time_elapsed":906289},{"task":"success","success":true,"trial_type":"success-screen-plugin","trial_index":228,"plugin_version":null,"time_elapsed":906791},{"trial_type":"html-keyboard-response","trial_index":230,"plugin_version":null,"time_elapsed":910837},{"task":"accept","reward":9,"bounds":[80.49140298797755,100.49140298797755],"originalBounds":[70,90],"delay":[0,1000],"rt":1715,"stimulus":"\n<div\n  id=\"acceptance-container\"\n  style=\"display: flex; flex-direction: column; justify-content: center; align-items: center; height: 100%;\"\n>\n  <div\n    id=\"thermometer-container\"\n    style=\"display: flex; justify-content: center; align-items: center; height: 300px; width: 100px; border: 1px solid #000; margin-bottom: 10px; box-sizing: border-box;\"\n  >\n    <div\n      id=\"thermometer\"\n      style=\"position: relative; width: 100%; height: 100%; background-color: #e0e0e0; box-sizing: border-box;\"\n    >\n      <div\n        id=\"blue-area\"\n        style=\"position: absolute; bottom: 80.49140298797755%; height: 20%; width: 100%; background-color: blue;\"\n      ></div>\n      <div\n        id=\"lower-bound\"\n        style=\"position: absolute; bottom: 80.49140298797755%; width: 100%; height: 2px; background-color: black;\"\n      ></div>\n      <div\n        id=\"upper-bound\"\n        style=\"position: absolute; bottom: 100.49140298797755%; width: 100%; height: 2px; background-color: black;\"\n      ></div>\n    </div>\n  </div>\n  <p style=\"text-align: center;\">Reward:  9 points</p>\n  <p style=\"text-align: center;\"><br>Press the <b>Right Arrow</b> on your keyboard to accept the trial <svg class='right-arrow' style='width: 48px; height: 48px;'xmlns='http://www.w3.org/2000/svg' viewBox='0 0 16 16'><path fill-rule='evenodd' d='M10.146 4.646a.5.5 0 0 1 .708 0l2.646 2.647-2.646 2.646a.5.5 0 0 1-.708-.707L11.293 8H2a.5.5 0 0 1 0-1h9.293L10.146 5.354a.5.5 0 0 1 0-.708z'/></svg><br>or<br><svg class='left-arrow' style='width: 48px; height: 48px;' xmlns='http://www.w3.org/2000/svg' viewBox='0 0 16 16'><path fill-rule='evenodd' d='M5.854 4.646a.5.5 0 0 0-.708 0L2.5 7.293l2.646 2.647a.5.5 0 0 0 .708-.707L4.707 8H14a.5.5 0 0 0 0-1H4.707l1.147-1.146a.5.5 0 0 0 0-.708z'/></svg>Press the <b>Left Arrow</b> on your keyboard to skip the trial</p>\n</div>\n","response":"ArrowLeft","trial_type":"html-keyboard-response","trial_index":232,"plugin_version":null,"time_elapsed":912554,"accepted":false},{"trial_type":"html-keyboard-response","trial_index":234,"plugin_version":null,"time_elapsed":912756},{"task":"accept","reward":1,"bounds":[23.484900607318792,43.48490060731879],"originalBounds":[20,40],"delay":[0,1000],"rt":812,"stimulus":"\n<div\n  id=\"acceptance-container\"\n  style=\"display: flex; flex-direction: column; justify-content: center; align-items: center; height: 100%;\"\n>\n  <div\n    id=\"thermometer-container\"\n    style=\"display: flex; justify-content: center; align-items: center; height: 300px; width: 100px; border: 1px solid #000; margin-bottom: 10px; box-sizing: border-box;\"\n  >\n    <div\n      id=\"thermometer\"\n      style=\"position: relative; width: 100%; height: 100%; background-color: #e0e0e0; box-sizing: border-box;\"\n    >\n      <div\n        id=\"blue-area\"\n        style=\"position: absolute; bottom: 23.484900607318792%; height: 20%; width: 100%; background-color: blue;\"\n      ></div>\n      <div\n        id=\"lower-bound\"\n        style=\"position: absolute; bottom: 23.484900607318792%; width: 100%; height: 2px; background-color: black;\"\n      ></div>\n      <div\n        id=\"upper-bound\"\n        style=\"position: absolute; bottom: 43.48490060731879%; width: 100%; height: 2px; background-color: black;\"\n      ></div>\n    </div>\n  </div>\n  <p style=\"text-align: center;\">Reward:  1 points</p>\n  <p style=\"text-align: center;\"><br>Press the <b>Right Arrow</b> on your keyboard to accept the trial <svg class='right-arrow' style='width: 48px; height: 48px;'xmlns='http://www.w3.org/2000/svg' viewBox='0 0 16 16'><path fill-rule='evenodd' d='M10.146 4.646a.5.5 0 0 1 .708 0l2.646 2.647-2.646 2.646a.5.5 0 0 1-.708-.707L11.293 8H2a.5.5 0 0 1 0-1h9.293L10.146 5.354a.5.5 0 0 1 0-.708z'/></svg><br>or<br><svg class='left-arrow' style='width: 48px; height: 48px;' xmlns='http://www.w3.org/2000/svg' viewBox='0 0 16 16'><path fill-rule='evenodd' d='M5.854 4.646a.5.5 0 0 0-.708 0L2.5 7.293l2.646 2.647a.5.5 0 0 0 .708-.707L4.707 8H14a.5.5 0 0 0 0-1H4.707l1.147-1.146a.5.5 0 0 0 0-.708z'/></svg>Press the <b>Left Arrow</b> on your keyboard to skip the trial</p>\n</div>\n","response":"ArrowLeft","trial_type":"html-keyboard-response","trial_index":235,"plugin_version":null,"time_elapsed":913570,"accepted":false},{"trial_type":"html-keyboard-response","trial_index":237,"plugin_version":null,"time_elapsed":913974},{"task":"accept","reward":26,"bounds":[67.5795956543952,87.5795956543952],"originalBounds":[70,90],"delay":[0,1000],"rt":754,"stimulus":"\n<div\n  id=\"acceptance-container\"\n  style=\"display: flex; flex-direction: column; justify-content: center; align-items: center; height: 100%;\"\n>\n  <div\n    id=\"thermometer-container\"\n    style=\"display: flex; justify-content: center; align-items: center; height: 300px; width: 100px; border: 1px solid #000; margin-bottom: 10px; box-sizing: border-box;\"\n  >\n    <div\n      id=\"thermometer\"\n      style=\"position: relative; width: 100%; height: 100%; background-color: #e0e0e0; box-sizing: border-box;\"\n    >\n      <div\n        id=\"blue-area\"\n        style=\"position: absolute; bottom: 67.5795956543952%; height: 20%; width: 100%; background-color: blue;\"\n      ></div>\n      <div\n        id=\"lower-bound\"\n        style=\"position: absolute; bottom: 67.5795956543952%; width: 100%; height: 2px; background-color: black;\"\n      ></div>\n      <div\n        id=\"upper-bound\"\n        style=\"position: absolute; bottom: 87.5795956543952%; width: 100%; height: 2px; background-color: black;\"\n      ></div>\n    </div>\n  </div>\n  <p style=\"text-align: center;\">Reward:  26 points</p>\n  <p style=\"text-align: center;\"><br>Press the <b>Right Arrow</b> on your keyboard to accept the trial <svg class='right-arrow' style='width: 48px; height: 48px;'xmlns='http://www.w3.org/2000/svg' viewBox='0 0 16 16'><path fill-rule='evenodd' d='M10.146 4.646a.5.5 0 0 1 .708 0l2.646 2.647-2.646 2.646a.5.5 0 0 1-.708-.707L11.293 8H2a.5.5 0 0 1 0-1h9.293L10.146 5.354a.5.5 0 0 1 0-.708z'/></svg><br>or<br><svg class='left-arrow' style='width: 48px; height: 48px;' xmlns='http://www.w3.org/2000/svg' viewBox='0 0 16 16'><path fill-rule='evenodd' d='M5.854 4.646a.5.5 0 0 0-.708 0L2.5 7.293l2.646 2.647a.5.5 0 0 0 .708-.707L4.707 8H14a.5.5 0 0 0 0-1H4.707l1.147-1.146a.5.5 0 0 0 0-.708z'/></svg>Press the <b>Left Arrow</b> on your keyboard to skip the trial</p>\n</div>\n","response":"ArrowRight","trial_type":"html-keyboard-response","trial_index":238,"plugin_version":null,"time_elapsed":914730,"accepted":true},{"blockType":"wideasync","task":"block","randomDelay":[0,1000],"bounds":[67.5795956543952,87.5795956543952],"reward":26,"tapCount":0,"startTime":0,"endTime":0,"mercuryHeight":0,"error":"","errorOccurred":false,"keysReleasedFlag":false,"success":true,"keyTappedEarlyFlag":false,"keysState":{"a":true,"w":true,"e":true," ":true,"arrowright":true},"trial_type":"task-plugin","trial_index":239,"plugin_version":"1.0