[{"success":true,"timeout":false,"failed_images":[],"failed_audio":[],"failed_video":[],"trial_type":"preload","trial_index":0,"plugin_version":null,"time_elapsed":5},{"rt":19744,"stimulus":"Connect a device<br>","response":0,"trial_type":"html-button-response","trial_index":1,"plugin_version":"2.0.0","time_elapsed":19750},{"trial_type":"html-button-response","trial_index":2,"plugin_version":"2.0.0","time_elapsed":23653},{"trial_type":"html-keyboard-response","trial_index":3,"plugin_version":null,"time_elapsed":30906},{"success":true,"rt":11488,"trial_type":"fullscreen","trial_index":4,"plugin_version":null,"time_elapsed":43399},{"rt":68941,"stimulus":["\n<h2>Introduction</h2>\n<p1>Please sit comfortably with your face around 50cm from your screen during the experiment.</p1>\n<img src=\"./assets/images/tip.png\" alt=\"Description of the image\" style=\"width:800px;height:auto; display:block; margin: 10px auto;\">\n<div style=\"text-align: center; margin-top: 0%;\">\n    <p style=\"color: #333; max-width: 80%; margin: 0 auto; line-height: 1.5;\">\n      <p1> Click the button below to proceed.</p1>\n    </p>\n</div>\n"],"response":0,"trial_type":"html-button-response","trial_index":5,"plugin_version":"2.0.0","time_elapsed":112341},{"rt":13590,"stimulus":["The first part of the experiment will consist of two different sections:<br><br><ol style='text-align: left;'><li>A practice section so you can get familiarized with the task you will be performing.</li><li>A calibration section to ensure that everything is running correctly.</li></ol><p>Please follow the instructions throughout each section carefully.</p>Press the button below to begin."],"response":0,"trial_type":"html-button-response","trial_index":6,"plugin_version":"2.0.0","time_elapsed":125934},{"rt":52050,"stimulus":["\n<div style=\"display: flex; flex-direction: column; justify-content: center; align-items: center; padding: 10px 0;\">\n  <div style=\"text-align: center; margin-bottom: 2%;\">\n    <p style=\"font-size: 1.5vw; color: #333; max-width: 80%; margin: 0 auto; line-height: 1.5;\">\n      <h2>Tutorial</h2>The video below demonstrates how the task will be performed.<br><br><ol><li> You will place your pinky on the <b>A</b> key<br></li><li> Place your ring finger on the <b>W</b> key<br></li> <li>Place your middle finger on the <b>E</b> key</li><li>Place your left thumb on the <b>spacebar</b> key</li><li>Place your right index finger on the <b>right arrow</b> key</li></ol><br><p>While still holding down with these fingers, simultaneously, when you see the <b>GO!</b>, tap the <b>F</b> key, <b>repeatedly</b> with your index finger <b>as fast as you can!</b></p><ul class = 'warning'><li>Do not tap the <b>F</b> key until the <b>GO!</b> appears</li> <li>Do not release the <b>A</b>, <b>W</b>, <b>E</b>, <b>Spacebar</b>, <b>Right Arrow</b> until prompted.</li></ul>. <br />Click the continue at the bottom to proceed to the test trial.\n    </p>\n  </div>\n  <div style=\"flex-grow: 1; display: flex; justify-content: center; align-items: center; margin: 0 auto;\">\n    <div style=\"width: 60%; max-width: 550px; height: auto; background-color: rgb(255, 255, 255);\">\n      <video\n        id=\"videoTutorial\"\n        title=\"Tutorial Video\"\n        style=\"width: 100%; height: auto;\"\n        src=\"./assets/videos/calibration-part1.mp4\"\n        autoplay\n        muted\n        loop\n      ></video>\n    </div>\n  </div>\n    <p>\n      <p1> Click the button below to proceed.</p1>\n    </p>\n</div>"],"response":0,"trial_type":"html-button-response","trial_index":7,"plugin_version":"2.0.0","time_elapsed":177989},{"rt":35207,"stimulus":["\n<h2>Tutorial</h2>\n<p1>The image below shows how the fingers of <b>your left hand</b> should be placed on the keyboard throughout the task. <br /><b>The index finger of your right hand should be on the right arrow at the same time.</b></p1>\n<img src='./assets/images/hand.png' alt=\"Description of the image\" style=\"width:500px;height:auto; display:block; margin: 10px auto;\">\n<div style=\"text-align: center; margin-top: 0%;\">\n    <p style=\"color: #333; max-width: 80%; margin: 0 auto; line-height: 1.5;\">\n      <p1> Click the button below to proceed.</p1>\n    </p>\n</div>\n"],"response":0,"trial_type":"html-button-response","trial_index":8,"plugin_version":"2.0.0","time_elapsed":213198},{"task":"countdown","keyTappedEarlyFlag":false,"trial_type":"countdown-trial","trial_index":9,"plugin_version":"1.0","time_elapsed":318587},{"tapCount":1,"startTime":318590,"endTime":320145,"mercuryHeight":0,"error":"You released the keys early!","bounds":[20,40],"reward":0,"task":"practice","errorOccurred":true,"keysReleasedFlag":true,"success":false,"keyTappedEarlyFlag":false,"keysState":{"a":false,"w":false,"e":false," ":false,"arrowright":false},"trial_type":"task-plugin","trial_index":10,"plugin_version":"1.0","time_elapsed":320145},{"task":"success","success":false,"trial_type":"success-screen-plugin","trial_index":12,"plugin_version":null,"time_elapsed":320648},{"trial_type":"html-keyboard-response","trial_index":13,"plugin_version":null,"time_elapsed":323784},{"task":"countdown","keyTappedEarlyFlag":false,"trial_type":"countdown-trial","trial_index":14,"plugin_version":"1.0","time_elapsed":345875},{"tapCount":22,"startTime":345876,"endTime":352878,"mercuryHeight":96,"error":"","bounds":[20,40],"reward":0,"task":"practice","errorOccurred":false,"keysReleasedFlag":false,"success":false,"keyTappedEarlyFlag":false,"keysState":{"a":true,"w":true,"e":true," ":true,"arrowright":true},"trial_type":"task-plugin","trial_index":15,"plugin_version":"1.0","time_elapsed":352878},{"errorOccurred":false,"trial_type":"release-keys","trial_index":16,"plugin_version":"1.0","time_elapsed":357431},{"task":"success","success":true,"trial_type":"success-screen-plugin","trial_index":17,"plugin_version":null,"time_elapsed":357933},{"trial_type":"html-keyboard-response","trial_index":18,"plugin_version":null,"time_elapsed":360763},{"task":"countdown","keyTappedEarlyFlag":false,"trial_type":"countdown-trial","trial_index":19,"plugin_version":"1.0","time_elapsed":380729},{"tapCount":31,"startTime":380731,"endTime":387732,"mercuryHeight":100,"error":"","bounds":[20,40],"reward":0,"task":"practice","errorOccurred":false,"keysReleasedFlag":false,"success":false,"keyTappedEarlyFlag":false,"keysState":{"a":true,"w":true,"e":true," ":true,"arrowright":true},"trial_type":"task-plugin","trial_index":20,"plugin_version":"1.0","time_elapsed":387733},{"errorOccurred":false,"trial_type":"release-keys","trial_index":21,"plugin_version":"1.0","time_elapsed":388163},{"task":"success","success":true,"trial_type":"success-screen-plugin","trial_index":22,"plugin_version":null,"time_elapsed":388666},{"trial_type":"html-keyboard-response","trial_index":23,"plugin_version":null,"time_elapsed":392308},{"rt":6433,"stimulus":["<h2>Calibration</h2>You will now begin the <b>Calibration</b> section of the experiment, which consists of <b>three</b> parts. <br>Press the button below to begin."],"response":0,"trial_type":"html-button-response","trial_index":24,"plugin_version":"2.0.0","time_elapsed":398743},{"rt":14158,"stimulus":"\n    <div style=\"display: flex; flex-direction: column; justify-content: center; align-items: center; text-align: center;\">\n      <p style=\"margin-bottom: 20px;\">\n        <h2>Calibration</h2><h3>Part 1</h3><p>You will perform the same task as the practice section.</p><ol><li> You will place your pinky on the <b>A</b> key<br></li><li> Place your ring finger on the <b>W</b> key<br></li> <li>Place your middle finger on the <b>E</b> key</li><li>Place your left thumb on the <b>spacebar</b> key</li><li>Place your right index finger on the <b>right arrow</b> key</li></ol><br><p>While still holding down with these fingers, simultaneously, when you see the <b>GO!</b>, tap the <b>F</b> key, <b>repeatedly</b> with your index finger <b>as fast as you can!</b></p><br><ul class = 'warning'><li>Do not tap the <b>F</b> key until the <b>GO!</b> appears</li> <li>Do not release the <b>A</b>, <b>W</b>, <b>E</b>, <b>Spacebar</b>, <b>Right Arrow</b> until prompted.</li></ul> <br><br> <p1>Press the button below to proceed.</p1>\n      </p>\n    </div>","response":0,"trial_type":"html-button-response","trial_index":25,"plugin_version":"2.0.0","time_elapsed":412903},{"task":"countdown","keyTappedEarlyFlag":false,"trial_type":"countdown-trial","trial_index":26,"plugin_version":"1.0","time_elapsed":422930},{"tapCount":32,"startTime":422932,"endTime":429933,"mercuryHeight":96,"error":"","bounds":[50,50],"reward":0,"task":"calibrationPart1","errorOccurred":false,"keysReleasedFlag":false,"success":false,"keyTappedEarlyFlag":false,"keysState":{"a":true,"w":true,"e":true," ":true,"arrowright":true},"trial_type":"task-plugin","trial_index":27,"plugin_version":"1.0","time_elapsed":429933,"medianTaps":{"calibrationPart1":35,"calibrationPart2":32,"finalCalibrationPart1":35,"finalCalibrationPart2":33}},{"errorOccurred":false,"trial_type":"release-keys","trial_index":28,"plugin_version":"1.0","time_elapsed":430702},{"trial_type":"html-keyboard-response","trial_index":29,"plugin_version":null,"time_elapsed":434350},{"task":"countdown","keyTappedEarlyFlag":false,"trial_type":"countdown-trial","trial_index":30,"plugin_version":"1.0","time_elapsed":441266},{"tapCount":38,"startTime":441267,"endTime":448268,"mercuryHeight":97.625,"error":"","bounds":[50,50],"reward":0,"task":"calibrationPart1","errorOccurred":false,"keysReleasedFlag":false,"success":false,"keyTappedEarlyFlag":false,"keysState":{"a":true,"w":true,"e":true," ":true,"arrowright":true},"trial_type":"task-plugin","trial_index":31,"plugin_version":"1.0","time_elapsed":448269,"medianTaps":{"calibrationPart1":35,"calibrationPart2":32,"finalCalibrationPart1":35,"finalCalibrationPart2":33}},{"errorOccurred":false,"trial_type":"release-keys","trial_index":32,"plugin_version":"1.0","time_elapsed":449055},{"trial_type":"html-keyboard-response","trial_index":33,"plugin_version":null,"time_elapsed":452694},{"rt":15719,"stimulus":["\n<div style=\"display: flex; flex-direction: column; justify-content: center; align-items: center; padding: 10px 0;\">\n  <div style=\"text-align: center; margin-bottom: 0%;\">\n    <p>\n      <h2>Calibration</h2><h3>Part 2</h3><p1>Get the red bar as high as possible with your taps!</p1><br><ul class = 'warning'><li>Do not tap the <b>F</b> key until the <b>GO!</b> appears</li> <li>Do not release the <b>A</b>, <b>W</b>, <b>E</b>, <b>Spacebar</b>, <b>Right Arrow</b> until prompted.</li></ul>\n    </p>\n  </div>\n  <div style=\"flex-grow: 1; display: flex; justify-content: center; align-items: center;\">\n    <div style=\"width: 40%; max-width: 700px; height: auto; background-color: rgb(255, 255, 255);\">\n      <video\n        id=\"videoTutorial\"\n        title=\"Tutorial Video\"\n        style=\"width: 100%; height: auto;\"\n        src=\"./assets/videos/calibration-part2.mp4\"\n        autoplay\n        muted\n        loop\n      ></video>\n    </div>\n  </div>\n  <div style=\"text-align: center; margin-top: 0%;\">\n    <p>\n      <p1> Click the button below to proceed.</p1>\n    </p>\n  </div>\n</div>"],"response":0,"trial_type":"html-button-response","trial_index":35,"plugin_version":"2.0.0","time_elapsed":468421},{"task":"countdown","keyTappedEarlyFlag":false,"trial_type":"countdown-trial","trial_index":36,"plugin_version":"1.0","time_elapsed":474553},{"tapCount":24,"startTime":474554,"endTime":480208,"mercuryHeight":28.28571428571432,"error":"You released the keys early!","bounds":[50,50],"reward":0,"task":"calibrationPart2","errorOccurred":true,"keysReleasedFlag":true,"success":false,"keyTappedEarlyFlag":false,"keysState":{"a":false,"w":false,"e":false," ":false,"arrowright":false},"trial_type":"task-plugin","trial_index":37,"plugin_version":"1.0","time_elapsed":480208},{"trial_type":"html-keyboard-response","trial_index":39,"plugin_version":null,"time_elapsed":483851},{"task":"countdown","keyTappedEarlyFlag":false,"trial_type":"countdown-trial","trial_index":40,"plugin_version":"1.0","time_elapsed":488514},{"tapCount":32,"startTime":488515,"endTime":495516,"mercuryHeight":45.714285714285765,"error":"","bounds":[50,50],"reward":0,"task":"calibrationPart2","errorOccurred":false,"keysReleasedFlag":false,"success":false,"keyTappedEarlyFlag":false,"keysState":{"a":true,"w":true,"e":true," ":true,"arrowright":true},"trial_type":"task-plugin","trial_index":41,"plugin_version":"1.0","time_elapsed":495516,"medianTaps":{"calibrationPart1":35,"calibrationPart2":32,"finalCalibrationPart1":35,"finalCalibrationPart2":33}},{"errorOccurred":false,"trial_type":"release-keys","trial_index":42,"plugin_version":"1.0","time_elapsed":496097},{"trial_type":"html-keyboard-response","trial_index":43,"plugin_version":null,"time_elapsed":499433},{"task":"countdown","keyTappedEarlyFlag":false,"trial_type":"countdown-trial","trial_index":44,"plugin_version":"1.0","time_elapsed":504034},{"tapCount":32,"startTime":504035,"endTime":511035,"mercuryHeight":41.714285714285765,"error":"","bounds":[50,50],"reward":0,"task":"calibrationPart2","errorOccurred":false,"keysReleasedFlag":false,"success":false,"keyTappedEarlyFlag":false,"keysState":{"a":true,"w":true,"e":true," ":true,"arrowright":true},"trial_type":"task-plugin","trial_index":45,"plugin_version":"1.0","time_elapsed":511036,"medianTaps":{"calibrationPart1":35,"calibrationPart2":32,"finalCalibrationPart1":35,"finalCalibrationPart2":33}},{"errorOccurred":false,"trial_type":"release-keys","trial_index":46,"plugin_version":"1.0","time_elapsed":511816},{"trial_type":"html-keyboard-response","trial_index":47,"plugin_version":null,"time_elapsed":515145},{"rt":12089,"stimulus":["\n<div style=\"display: flex; flex-direction: column; justify-content: center; align-items: center; padding: 10px 0;\">\n  <div style=\"text-align: center; margin-bottom: 0%;\">\n    <p>\n      <h2>Calibration</h2><h3>Part 3</h3><p1>Get the top of the red bar in the target area with your taps!</p1><br><ul class = 'warning'><li>Do not tap the <b>F</b> key until the <b>GO!</b> appears</li> <li>Do not release the <b>A</b>, <b>W</b>, <b>E</b>, <b>Spacebar</b>, <b>Right Arrow</b> until prompted.</li></ul>\n    </p>\n  </div>\n  <div style=\"flex-grow: 1; display: flex; justify-content: center; align-items: center;\">\n    <div style=\"width: 100%; max-width: 500px; height: auto; background-color: rgb(255, 255, 255);\">\n      <video\n        id=\"videoTutorial\"\n        title=\"Tutorial Video\"\n        style=\"width: 100%; height: auto;\"\n        src=\"./assets/videos/validation.mp4\"\n        autoplay\n        muted\n        loop\n      ></video>\n    </div>\n  </div>\n  <div style=\"text-align: center; margin-top: 0%;\">\n    <p>\n      <p1> Click the button below to proceed.</p1>\n    </p>\n  </div>\n</div>"],"response":0,"trial_type":"html-button-response","trial_index":49,"plugin_version":"2.0.0","time_elapsed":527240},{"task":"countdown","keyTappedEarlyFlag":false,"trial_type":"countdown-trial","trial_index":50,"plugin_version":"1.0","time_elapsed":532418},{"task":"validationEasy","tapCount":18,"startTime":532419,"endTime":539420,"mercuryHeight":23,"error":"","bounds":[30,50],"reward":0,"errorOccurred":false,"keysReleasedFlag":false,"success":false,"keyTappedEarlyFlag":false,"keysState":{"a":true,"w":true,"e":true," ":true,"arrowright":true},"trial_type":"task-plugin","trial_index":51,"plugin_version":"1.0","time_elapsed":539421},{"errorOccurred":false,"trial_type":"release-keys","trial_index":52,"plugin_version":"1.0","time_elapsed":540242},{"task":"success","success":false,"trial_type":"success-screen-plugin","trial_index":53,"plugin_version":null,"time_elapsed":540743},{"trial_type":"html-keyboard-response","trial_index":54,"plugin_version":null,"time_elapsed":544283},{"task":"countdown","keyTappedEarlyFlag":false,"trial_type":"countdown-trial","trial_index":55,"plugin_version":"1.0","time_elapsed":549012},{"task":"validationMedium","tapCount":23,"startTime":549013,"endTime":556014,"mercuryHeight":43,"error":"","bounds":[50,70],"reward":0,"errorOccurred":false,"keysReleasedFlag":false,"success":false,"keyTappedEarlyFlag":false,"keysState":{"a":true,"w":true,"e":true," ":true,"arrowright":true},"trial_type":"task-plugin","trial_index":56,"plugin_version":"1.0","time_elapsed":556015},{"errorOccurred":false,"trial_type":"release-keys","trial_index":57,"plugin_version":"1.0","time_elapsed":556468},{"task":"success","success":false,"trial_type":"success-screen-plugin","trial_index":58,"plugin_version":null,"time_elapsed":556970},{"trial_type":"html-keyboard-response","trial_index":59,"plugin_version":null,"time_elapsed":559910},{"task":"countdown","keyTappedEarlyFlag":false,"trial_type":"countdown-trial","trial_index":60,"plugin_version":"1.0","time_elapsed":564161},{"task":"validationHard","tapCount":25,"startTime":564162,"endTime":571164,"mercuryHeight":61.5,"error":"","bounds":[70,90],"reward":0,"errorOccurred":false,"keysReleasedFlag":false,"success":false,"keyTappedEarlyFlag":false,"keysState":{"a":true,"w":true,"e":true," ":true,"arrowright":true},"trial_type":"task-plugin","trial_index":61,"plugin_version":"1.0","time_elapsed":571165},{"errorOccurred":false,"trial_type":"release-keys","trial_index":62,"plugin_version":"1.0","time_elapsed":571713},{"task":"success","success":false,"trial_type":"success-screen-plugin","trial_index":63,"plugin_version":null,"time_elapsed":572216},{"trial_type":"html-keyboard-response","trial_index":64,"plugin_version":null,"time_elapsed":575649},{"task":"countdown","keyTappedEarlyFlag":false,"trial_type":"countdown-trial","trial_index":65,"plugin_version":"1.0","time_elapsed":580666},{"task":"validationExtra","tapCount":25,"startTime":580667,"endTime":587668,"mercuryHeight":57.5,"error":"","bounds":[70,90],"reward":0,"errorOccurred":false,"keysReleasedFlag":false,"success":false,"keyTappedEarlyFlag":false,"keysState":{"a":true,"w":true,"e":true," ":true,"arrowright":true},"trial_type":"task-plugin","trial_index":66,"plugin_version":"1.0","time_elapsed":587668},{"errorOccurred":false,"trial_type":"release-keys","trial_index":67,"plugin_version":"1.0","time_elapsed":588264},{"task":"success","success":false,"trial_type":"success-screen-plugin","trial_index":68,"plugin_version":null,"time_elapsed":588767},{"trial_type":"html-keyboard-response","trial_index":69,"plugin_version":null,"time_elapsed":592405},{"additional":true,"validation":true,"rt":32242,"response":{"Your Level of Attention":5},"question_order":[0],"trial_type":"survey-likert","trial_index":70,"plugin_version":null,"time_elapsed":624649},{"additional":true,"validation":true,"rt":3502,"response":{"Your Level of Motivation":6},"question_order":[0],"trial_type":"survey-likert","trial_index":71,"plugin_version":null,"time_elapsed":628153},{"additional":true,"validation":true,"rt":10739,"response":{"Your Level of Muscular Fatigue of the Left Arm":2},"question_order":[0],"trial_type":"survey-likert","trial_index":72,"plugin_version":null,"time_elapsed":638894},{"additional":true,"validation":true,"rt":7738,"response":{"Your Level of Overall Tiredness":1},"question_order":[0],"trial_type":"survey-likert","trial_index":73,"plugin_version":null,"time_elapsed":646633},{"rt":190037,"stimulus":["\n<div style=\"text-align: center; margin: 0 10%;\">\n  <h2>Trial Blocks</h2>\n  <p>\n    During this next phase of the experiment, you will have the choice to skip or accept a trial.<br><br>You may skip the trial with the <b>Left Arrow</b> on your keyboard<br>or<br>You may accept a trial with the <b>Right Arrow</b> on your keyboard<br><br>If the trial is accepted, you <b>may</b> have to complete a tapping task. The required target area or the task will be shown in <b>blue</b>. If the <b>top of the red bar</b> ends <b>inside</b> the target area during the trial, you will receive the reward shown to you.<br /><br /><h4>ⓘ Before the block begins, you will have a set of practice trials to familiarize yourself with the task.</h4>\n  </p>\n  <p style=\"color: #333; max-width: 80%; margin: 0 auto; line-height: 1.5;\">\n    <p1> Click the button below to proceed.</p1>\n  </p>\n</div>\n"],"response":0,"trial_type":"html-button-response","trial_index":74,"plugin_version":"2.0.0","time_elapsed":836673},{"rt":23167,"stimulus":["\n<div style=\"text-align: center; margin: 0 10%;\">\n  <h2>Reward Information</h2>\n  <p>\n    During this part of the experiment you will also start earning your additional reward.<br><br>For each trial offer, you will see what tapping effort you will have to do to succeed, based on how high-up the target area is located. Moreover, you will be able to see the reward (in points) you receive, if you succeed the trial. <h4>For every trial, the question to you is: <b>is it worth putting in this much tapping effort, for this reward?</b></h4>If you accept a trial, you <b>may</b> have to perform the tapping and <b>if you succeed, you will receive the points.</b> If you decline, you will move on to the next trial <b>and you will not receive the points.</b><br /><br />Your final reward money is based on the percentage of points that you collect.\n  </p>\n  <p style=\"color: #333; max-width: 80%; margin: 0 auto; line-height: 1.5;\">\n    <p1> Click the button below to proceed.</p1>\n  </p>\n</div>\n"],"response":0,"trial_type":"html-button-response","trial_index":75,"plugin_version":"2.0.0","time_elapsed":859841},{"rt":12094,"stimulus":"<p><p><br>The next <b>3</b> trials you will complete are <b>practice</b> trials.<br>The feedback you receive on the display when the <b>F</b> key is tapped will be the same as in the next block of trials that you will complete. <br><br> Attempt to finish the trial with the top of the red bar within the target area. <br><ul class = 'warning'><li>Do not tap the <b>F</b> key until the <b>GO!</b> appears</li> <li>Do not release the <b>A</b>, <b>W</b>, <b>E</b>, <b>Spacebar</b>, <b>Right Arrow</b> until prompted.</li></ul></p>","response":0,"trial_type":"html-button-response","trial_index":76,"plugin_version":"2.0.0","time_elapsed":871937},{"task":"countdown","keyTappedEarlyFlag":false,"trial_type":"countdown-trial","trial_index":77,"plugin_version":"1.0","time_elapsed":880037},{"blockType":"sync","task":"demo","randomDelay":[0,0],"bounds":[20,40],"reward":0,"tapCount":19,"startTime":880038,"endTime":887040,"mercuryHeight":30.5,"error":"","errorOccurred":false,"keysReleasedFlag":false,"success":true,"keyTappedEarlyFlag":false,"keysState":{"a":true,"w":true,"e":true," ":true,"arrowright":true},"trial_type":"task-plugin","trial_index":78,"plugin_version":"1.0","time_elapsed":887041,"minimumTapsReached":true},{"errorOccurred":false,"trial_type":"release-keys","trial_index":79,"plugin_version":"1.0","time_elapsed":887780},{"trial_type":"html-keyboard-response","trial_index":81,"plugin_version":null,"time_elapsed":890714},{"task":"countdown","keyTappedEarlyFlag":true,"trial_type":"countdown-trial","trial_index":82,"plugin_version":"1.0","time_elapsed":895516},{"blockType":"sync","task":"demo","randomDelay":[0,0],"bounds":[45,65],"reward":0,"tapCount":0,"startTime":0,"endTime":898518,"mercuryHeight":0,"error":"","errorOccurred":true,"keysReleasedFlag":false,"success":false,"keyTappedEarlyFlag":true,"keysState":{"a":false,"w":false,"e":false," ":false,"arrowright":false},"trial_type":"task-plugin","trial_index":83,"plugin_version":"1.0","time_elapsed":898519,"minimumTapsReached":false},{"trial_type":"html-keyboard-response","trial_index":86,"plugin_version":null,"time_elapsed":902160},{"task":"countdown","keyTappedEarlyFlag":false,"trial_type":"countdown-trial","trial_index":87,"plugin_version":"1.0","time_elapsed":906052},{"blockType":"sync","task":"demo","randomDelay":[0,0],"bounds":[45,65],"reward":0,"tapCount":24,"startTime":906053,"endTime":913054,"mercuryHeight":58,"error":"","errorOccurred":false,"keysReleasedFlag":false,"success":true,"keyTappedEarlyFlag":false,"keysState":{"a":true,"w":true,"e":true," ":true,"arrowright":true},"trial_type":"task-plugin","trial_index":88,"plugin_version":"1.0","time_elapsed":913055,"minimumTapsReached":true},{"errorOccurred":false,"trial_type":"release-keys","trial_index":89,"plugin_version":"1.0","time_elapsed":913757},{"trial_type":"html-keyboard-response","trial_index":91,"plugin_version":null,"time_elapsed":917098},{"task":"countdown","keyTappedEarlyFlag":false,"trial_type":"countdown-trial","trial_index":92,"plugin_version":"1.0","time_elapsed":920928},{"blockType":"sync","task":"demo","randomDelay":[0,0],"bounds":[70,90],"reward":0,"tapCount":28,"startTime":920929,"endTime":927931,"mercuryHeight":80,"error":"","errorOccurred":false,"keysReleasedFlag":false,"success":true,"keyTappedEarlyFlag":false,"keysState":{"a":true,"w":true,"e":true," ":true,"arrowright":true},"trial_type":"task-plugin","trial_index":93,"plugin_version":"1.0","time_elapsed":927931,"minimumTapsReached":true},{"errorOccurred":false,"trial_type":"release-keys","trial_index":94,"plugin_version":"1.0","time_elapsed":928529},{"trial_type":"html-keyboard-response","trial_index":96,"plugin_version":null,"time_elapsed":931866},{"rt":2750,"stimulus":["You will now answer a few questions. Press the button below to proceed."],"response":0,"trial_type":"html-button-response","trial_index":97,"plugin_version":"2.0.0","time_elapsed":934617},{"rt":12551,"response":{"I felt I was in control of the bar's movement.":6},"question_order":[0],"trial_type":"survey-likert","trial_index":98,"plugin_version":null,"time_elapsed":947170},{"additional":true,"rt":5654,"response":{"I found the task difficult.":3},"question_order":[0],"trial_type":"survey-likert","trial_index":99,"plugin_version":null,"time_elapsed":952826},{"task":"accept","reward":24,"bounds":[48.29817562784039,68.2981756278404],"originalBounds":[45,65],"delay":[0,0],"rt":9590,"stimulus":"\n<div\n  id=\"acceptance-container\"\n  style=\"display: flex; flex-direction: column; justify-content: center; align-items: center; height: 100%;\"\n>\n  <div\n    id=\"thermometer-container\"\n    style=\"display: flex; justify-content: center; align-items: center; height: 300px; width: 100px; border: 1px solid #000; margin-bottom: 10px; box-sizing: border-box;\"\n  >\n    <div\n      id=\"thermometer\"\n      style=\"position: relative; width: 100%; height: 100%; background-color: #e0e0e0; box-sizing: border-box;\"\n    >\n      <div\n        id=\"blue-area\"\n        style=\"position: absolute; bottom: 48.29817562784039%; height: 20%; width: 100%; background-color: blue;\"\n      ></div>\n      <div\n        id=\"lower-bound\"\n        style=\"position: absolute; bottom: 48.29817562784039%; width: 100%; height: 2px; background-color: black;\"\n      ></div>\n      <div\n        id=\"upper-bound\"\n        style=\"position: absolute; bottom: 68.2981756278404%; width: 100%; height: 2px; background-color: black;\"\n      ></div>\n    </div>\n  </div>\n  <p style=\"text-align: center;\">Reward:  24 points</p>\n  <p style=\"text-align: center;\"><br>Press the <b>Right Arrow</b> on your keyboard to accept the trial <svg class='right-arrow' style='width: 48px; height: 48px;'xmlns='http://www.w3.org/2000/svg' viewBox='0 0 16 16'><path fill-rule='evenodd' d='M10.146 4.646a.5.5 0 0 1 .708 0l2.646 2.647-2.646 2.646a.5.5 0 0 1-.708-.707L11.293 8H2a.5.5 0 0 1 0-1h9.293L10.146 5.354a.5.5 0 0 1 0-.708z'/></svg><br>or<br><svg class='left-arrow' style='width: 48px; height: 48px;' xmlns='http://www.w3.org/2000/svg' viewBox='0 0 16 16'><path fill-rule='evenodd' d='M5.854 4.646a.5.5 0 0 0-.708 0L2.5 7.293l2.646 2.647a.5.5 0 0 0 .708-.707L4.707 8H14a.5.5 0 0 0 0-1H4.707l1.147-1.146a.5.5 0 0 0 0-.708z'/></svg>Press the <b>Left Arrow</b> on your keyboard to skip the trial</p>\n</div>\n","response":"ArrowRight","trial_type":"html-keyboard-response","trial_index":100,"plugin_version":null,"time_elapsed":962420,"accepted":true},{"blockType":"sync","task":"block","randomDelay":[0,0],"bounds":[48.29817562784039,68.2981756278404],"reward":24,"tapCount":0,"startTime":0,"endTime":0,"mercuryHeight":0,"error":"","errorOccurred":false,"keysReleasedFlag":false,"success":true,"keyTappedEarlyFlag":false,"keysState":{"a":true,"w":true,"e":true," ":true,"arrowright":true},"trial_type":"task-plugin","trial_index":101,"plugin_version":"1.0","time_elapsed":962421,"medianTaps":{"calibrationPart1Median":35,"calibrationPart2Median":32}},{"task":"success","success":true,"trial_type":"success-screen-plugin","trial_index":103,"plugin_version":null,"time_elapsed":962926},{"trial_type":"html-keyboard-response","trial_index":104,"plugin_version":null,"time_elapsed":963333},{"task":"accept","reward":24,"bounds":[70.27578648006408,90.27578648006408],"originalBounds":[70,90],"delay":[0,0],"rt":4460,"stimulus":"\n<div\n  id=\"acceptance-container\"\n  style=\"display: flex; flex-direction: column; justify-content: center; align-items: center; height: 100%;\"\n>\n  <div\n    id=\"thermometer-container\"\n    style=\"display: flex; justify-content: center; align-items: center; height: 300px; width: 100px; border: 1px solid #000; margin-bottom: 10px; box-sizing: border-box;\"\n  >\n    <div\n      id=\"thermometer\"\n      style=\"position: relative; width: 100%; height: 100%; background-color: #e0e0e0; box-sizing: border-box;\"\n    >\n      <div\n        id=\"blue-area\"\n        style=\"position: absolute; bottom: 70.27578648006408%; height: 20%; width: 100%; background-color: blue;\"\n      ></div>\n      <div\n        id=\"lower-bound\"\n        style=\"position: absolute; bottom: 70.27578648006408%; width: 100%; height: 2px; background-color: black;\"\n      ></div>\n      <div\n        id=\"upper-bound\"\n        style=\"position: absolute; bottom: 90.27578648006408%; width: 100%; height: 2px; background-color: black;\"\n      ></div>\n    </div>\n  </div>\n  <p style=\"text-align: center;\">Reward:  24 points</p>\n  <p style=\"text-align: center;\"><br>Press the <b>Right Arrow</b> on your keyboard to accept the trial <svg class='right-arrow' style='width: 48px; height: 48px;'xmlns='http://www.w3.org/2000/svg' viewBox='0 0 16 16'><path fill-rule='evenodd' d='M10.146 4.646a.5.5 0 0 1 .708 0l2.646 2.647-2.646 2.646a.5.5 0 0 1-.708-.707L11.293 8H2a.5.5 0 0 1 0-1h9.293L10.146 5.354a.5.5 0 0 1 0-.708z'/></svg><br>or<br><svg class='left-arrow' style='width: 48px; height: 48px;' xmlns='http://www.w3.org/2000/svg' viewBox='0 0 16 16'><path fill-rule='evenodd' d='M5.854 4.646a.5.5 0 0 0-.708 0L2.5 7.293l2.646 2.647a.5.5 0 0 0 .708-.707L4.707 8H14a.5.5 0 0 0 0-1H4.707l1.147-1.146a.5.5 0 0 0 0-.708z'/></svg>Press the <b>Left Arrow</b> on your keyboard to skip the trial</p>\n</div>\n","response":"ArrowRight","trial_type":"html-keyboard-response","trial_index":107,"plugin_version":null,"time_elapsed":967795,"accepted":true},{"blockType":"sync","task":"block","randomDelay":[0,0],"bounds":[70.27578648006408,90.27578648006408],"reward":24,"tapCount":0,"startTime":0,"endTime":0,"mercuryHeight":0,"error":"","errorOccurred":false,"keysReleasedFlag":false,"success":true,"keyTappedEarlyFlag":false,"keysState":{"a":true,"w":true,"e":true," ":true,"arrowright":true},"trial_type":"task-plugin","trial_index":108,"plugin_version":"1.0","time_elapsed":967796,"medianTaps":{"calibrationPart1Median":35,"calibrationPart2Median":32}},{"task":"success","success":true,"trial_type":"success-screen-plugin","trial_index":110,"plugin_version":null,"time_elapsed":968301},{"trial_type":"html-keyboard-response","trial_index":111,"plugin_version":null,"time_elapsed":968504},{"task":"accept","reward":3,"bounds":[73.95953925743306,93.95953925743306],"originalBounds":[70,90],"delay":[0,0],"rt":2665,"stimulus":"\n<div\n  id=\"acceptance-container\"\n  style=\"display: flex; flex-direction: column; justify-content: center; align-items: center; height: 100%;\"\n>\n  <div\n    id=\"thermometer-container\"\n    style=\"display: flex; justify-content: center; align-items: center; height: 300px; width: 100px; border: 1px solid #000; margin-bottom: 10px; box-sizing: border-box;\"\n  >\n    <div\n      id=\"thermometer\"\n      style=\"position: relative; width: 100%; height: 100%; background-color: #e0e0e0; box-sizing: border-box;\"\n    >\n      <div\n        id=\"blue-area\"\n        style=\"position: absolute; bottom: 73.95953925743306%; height: 20%; width: 100%; background-color: blue;\"\n      ></div>\n      <div\n        id=\"lower-bound\"\n        style=\"position: absolute; bottom: 73.95953925743306%; width: 100%; height: 2px; background-color: black;\"\n      ></div>\n      <div\n        id=\"upper-bound\"\n        style=\"position: absolute; bottom: 93.95953925743306%; width: 100%; height: 2px; background-color: black;\"\n      ></div>\n    </div>\n  </div>\n  <p style=\"text-align: center;\">Reward:  3 points</p>\n  <p style=\"text-align: center;\"><br>Press the <b>Right Arrow</b> on your keyboard to accept the trial <svg class='right-arrow' style='width: 48px; height: 48px;'xmlns='http://www.w3.org/2000/svg' viewBox='0 0 16 16'><path fill-rule='evenodd' d='M10.146 4.646a.5.5 0 0 1 .708 0l2.646 2.647-2.646 2.646a.5.5 0 0 1-.708-.707L11.293 8H2a.5.5 0 0 1 0-1h9.293L10.146 5.354a.5.5 0 0 1 0-.708z'/></svg><br>or<br><svg class='left-arrow' style='width: 48px; height: 48px;' xmlns='http://www.w3.org/2000/svg' viewBox='0 0 16 16'><path fill-rule='evenodd' d='M5.854 4.646a.5.5 0 0 0-.708 0L2.5 7.293l2.646 2.647a.5.5 0 0 0 .708-.707L4.707 8H14a.5.5 0 0 0 0-1H4.707l1.147-1.146a.5.5 0 0 0 0-.708z'/></svg>Press the <b>Left Arrow</b> on your keyboard to skip the trial</p>\n</div>\n","response":"ArrowRight","trial_type":"html-keyboard-response","trial_index":114,"plugin_version":null,"time_elapsed":971171,"accepted":true},{"blockType":"sync","task":"block","randomDelay":[0,0],"bounds":[73.95953925743306,93.95953925743306],"reward":3,"tapCount":0,"startTime":0,"endTime":0,"mercuryHeight":0,"error":"","errorOccurred":false,"keysReleasedFlag":false,"success":true,"keyTappedEarlyFlag":false,"keysState":{"a":true,"w":true,"e":true," ":true,"arrowright":true},"trial_type":"task-plugin","trial_index":115,"plugin_version":"1.0","time_elapsed":971173,"medianTaps":{"calibrationPart1Median":35,"calibrationPart2Median":32}},{"task":"success","success":true,"trial_type":"success-screen-plugin","trial_index":117,"plugin_version":null,"time_elapsed":971676},{"trial_type":"html-keyboard-response","trial_index":118,"plugin_version":null,"time_elapsed":971981},{"task":"accept","reward":24,"bounds":[21.826165518897845,41.826165518897845],"originalBounds":[20,40],"delay":[0,0],"rt":7916,"stimulus":"\n<div\n  id=\"acceptance-container\"\n  style=\"display: flex; flex-direction: column; justify-content: center; align-items: center; height: 100%;\"\n>\n  <div\n    id=\"thermometer-container\"\n    style=\"display: flex; justify-content: center; align-items: center; height: 300px; width: 100px; border: 1px solid #000; margin-bottom: 10px; box-sizing: border-box;\"\n  >\n    <div\n      id=\"thermometer\"\n      style=\"position: relative; width: 100%; height: 100%; background-color: #e0e0e0; box-sizing: border-box;\"\n    >\n      <div\n        id=\"blue-area\"\n        style=\"position: absolute; bottom: 21.826165518897845%; height: 20%; width: 100%; background-color: blue;\"\n      ></div>\n      <div\n        id=\"lower-bound\"\n        style=\"position: absolute; bottom: 21.826165518897845%; width: 100%; height: 2px; background-color: black;\"\n      ></div>\n      <div\n        id=\"upper-bound\"\n        style=\"position: absolute; bottom: 41.826165518897845%; width: 100%; height: 2px; background-color: black;\"\n      ></div>\n    </div>\n  </div>\n  <p style=\"text-align: center;\">Reward:  24 points</p>\n  <p style=\"text-align: center;\"><br>Press the <b>Right Arrow</b> on your keyboard to accept the trial <svg class='right-arrow' style='width: 48px; height: 48px;'xmlns='http://www.w3.org/2000/svg' viewBox='0 0 16 16'><path fill-rule='evenodd' d='M10.146 4.646a.5.5 0 0 1 .708 0l2.646 2.647-2.646 2.646a.5.5 0 0 1-.708-.707L11.293 8H2a.5.5 0 0 1 0-1h9.293L10.146 5.354a.5.5 0 0 1 0-.708z'/></svg><br>or<br><svg class='left-arrow' style='width: 48px; height: 48px;' xmlns='http://www.w3.org/2000/svg' viewBox='0 0 16 16'><path fill-rule='evenodd' d='M5.854 4.646a.5.5 0 0 0-.708 0L2.5 7.293l2.646 2.647a.5.5 0 0 0 .708-.707L4.707 8H14a.5.5 0 0 0 0-1H4.707l1.147-1.146a.5.5 0 0 0 0-.708z'/></svg>Press the <b>Left Arrow</b> on your keyboard to skip the trial</p>\n</div>\n","response":"ArrowRight","trial_type":"html-keyboard-response","trial_index":121,"plugin_version":null,"time_elapsed":979899,"accepted":true},{"task":"countdown","keyTappedEarlyFlag":false,"trial_type":"countdown-trial","trial_index":122,"plugin_version":"1.0","time_elapsed":986218},{"blockType":"sync","task":"block","randomDelay":[0,0],"bounds":[21.826165518897845,41.826165518897845],"reward":24,"tapCount":20,"startTime":986219,"endTime":993220,"mercuryHeight":30,"error":"","errorOccurred":false,"keysReleasedFlag":false,"success":true,"keyTappedEarlyFlag":false,"keysState":{"a":true,"w":true,"e":true," ":true,"arrowright":true},"trial_type":"task-plugin","trial_index":123,"plugin_version":"1.0","time_elapsed":993221,"medianTaps":{"calibrationPart1Median":35,"calibrationPart2Median":32}},{"errorOccurred":false,"trial_type":"release-keys","trial_index":124,"plugin_version":"1.0","time_elapsed":993826},{"task":"success","success":true,"trial_type":"success-screen-plugin","trial_index":125,"plugin_version":null,"time_elapsed":994328},{"trial_type":"html-keyboard-response","trial_index":127,"plugin_version":null,"time_elapsed":997467},{"task":"accept","reward":10,"bounds":[20.319881155238043,40.31988115523804],"originalBounds":[20,40],"delay":[0,0],"rt":2086,"stimulus":"\n<div\n  id=\"acceptance-container\"\n  style=\"display: flex; flex-direction: column; justify-content: center; align-items: center; height: 100%;\"\n>\n  <div\n    id=\"thermometer-container\"\n    style=\"display: flex; justify-content: center; align-items: center; height: 300px; width: 100px; border: 1px solid #000; margin-bottom: 10px; box-sizing: border-box;\"\n  >\n    <div\n      id=\"thermometer\"\n      style=\"position: relative; width: 100%; height: 100%; background-color: #e0e0e0; box-sizing: border-box;\"\n    >\n      <div\n        id=\"blue-area\"\n        style=\"position: absolute; bottom: 20.319881155238043%; height: 20%; width: 100%; background-color: blue;\"\n      ></div>\n      <div\n        id=\"lower-bound\"\n        style=\"position: absolute; bottom: 20.319881155238043%; width: 100%; height: 2px; background-color: black;\"\n      ></div>\n      <div\n        id=\"upper-bound\"\n        style=\"position: absolute; bottom: 40.31988115523804%; width: 100%; height: 2px; background-color: black;\"\n      ></div>\n    </div>\n  </div>\n  <p style=\"text-align: center;\">Reward:  10 points</p>\n  <p style=\"text-align: center;\"><br>Press the <b>Right Arrow</b> on your keyboard to accept the trial <svg class='right-arrow' style='width: 48px; height: 48px;'xmlns='http://www.w3.org/2000/svg' viewBox='0 0 16 16'><path fill-rule='evenodd' d='M10.146 4.646a.5.5 0 0 1 .708 0l2.646 2.647-2.646 2.646a.5.5 0 0 1-.708-.707L11.293 8H2a.5.5 0 0 1 0-1h9.293L10.146 5.354a.5.5 0 0 1 0-.708z'/></svg><br>or<br><svg class='left-arrow' style='width: 48px; height: 48px;' xmlns='http://www.w3.org/2000/svg' viewBox='0 0 16 16'><path fill-rule='evenodd' d='M5.854 4.646a.5.5 0 0 0-.708 0L2.5 7.293l2.646 2.647a.5.5 0 0 0 .708-.707L4.707 8H14a.5.5 0 0 0 0-1H4.707l1.147-1.146a.5.5 0 0 0 0-.708z'/></svg>Press the <b>Left Arrow</b> on your keyboard to skip the trial</p>\n</div>\n","response":"ArrowRight","trial_type":"html-keyboard-response","trial_index":129,"plugin_version":null,"time_elapsed":999555,"accepted":true},{"blockType":"sync","task":"block","randomDelay":[0,0],"bounds":[20.319881155238043,40.31988115523804],"reward":10,"tapCount":0,"startTime":0,"endTime":0,"mercuryHeight":0,"error":"","errorOccurred":false,"keysReleasedFlag":false,"success":true,"keyTappedEarlyFlag":false,"keysState":{"a":true,"w":true,"e":true," ":true,"arrowright":true},"trial_type":"task-plugin","trial_index":130,"plugin_version":"1.0","time_elapsed":999556,"medianTaps":{"calibrationPart1Median":35,"calibrationPart2Median":32}},{"task":"success","success":true,"trial_type":"success-screen-plugin","trial_index":132,"plugin_version":null,"time_elapsed":1000062},{"trial_type":"html-keyboard-response","trial_index":133,"plugin_version":null,"time_elapsed":1000267},{"task":"accept","reward":9,"bounds":[76.9226446456413,96.9226446456413],"originalBounds":[70,90],"delay":[0,0],"rt":2006,"stimulus":"\n<div\n  id=\"acceptance-container\"\n  style=\"display: flex; flex-direction: column; justify-content: center; align-items: center; height: 100%;\"\n>\n  <div\n    id=\"thermometer-container\"\n    style=\"display: flex; justify-content: center; align-items: center; height: 300px; width: 100px; border: 1px solid #000; margin-bottom: 10px; box-sizing: border-box;\"\n  >\n    <div\n      id=\"thermometer\"\n      style=\"position: relative; width: 100%; height: 100%; background-color: #e0e0e0; box-sizing: border-box;\"\n    >\n      <div\n        id=\"blue-area\"\n        style=\"position: absolute; bottom: 76.9226446456413%; height: 20%; width: 100%; background-color: blue;\"\n      ></div>\n      <div\n        id=\"lower-bound\"\n        style=\"position: absolute; bottom: 76.9226446456413%; width: 100%; height: 2px; background-color: black;\"\n      ></div>\n      <div\n        id=\"upper-bound\"\n        style=\"position: absolute; bottom: 96.9226446456413%; width: 100%; height: 2px; background-color: black;\"\n      ></div>\n    </div>\n  </div>\n  <p style=\"text-align: center;\">Reward:  9 points</p>\n  <p style=\"text-align: center;\"><br>Press the <b>Right Arrow</b> on your keyboard to accept the trial <svg class='right-arrow' style='width: 48px; height: 48px;'xmlns='http://www.w3.org/2000/svg' viewBox='0 0 16 16'><path fill-rule='evenodd' d='M10.146 4.646a.5.5 0 0 1 .708 0l2.646 2.647-2.646 2.646a.5.5 0 0 1-.708-.707L11.293 8H2a.5.5 0 0 1 0-1h9.293L10.146 5.354a.5.5 0 0 1 0-.708z'/></svg><br>or<br><svg class='left-arrow' style='width: 48px; height: 48px;' xmlns='http://www.w3.org/2000/svg' viewBox='0 0 16 16'><path fill-rule='evenodd' d='M5.854 4.646a.5.5 0 0 0-.708 0L2.5 7.293l2.646 2.647a.5.5 0 0 0 .708-.707L4.707 8H14a.5.5 0 0 0 0-1H4.707l1.147-1.146a.5.5 0 0 0 0-.708z'/></svg>Press the <b>Left Arrow</b> on your keyboard to skip the trial</p>\n</div>\n","response":"ArrowRight","trial_type":"html-keyboard-response","trial_index":136,"plugin_version":null,"time_elapsed":1002275,"accepted":true},{"blockType":"sync","task":"block","randomDelay":[0,0],"bounds":[76.9226446456413,96.9226446456413],"reward":9,"tapCount":0,"startTime":0,"endTime":0,"mercuryHeight":0,"error":"","errorOccurred":false,"keysReleasedFlag":false,"success":true,"keyTappedEarlyFlag":false,"keysState":{"a":true,"w":true,"e":true," ":true,"arrowright":true},"trial_type":"task-plugin","trial_index":137,"plugin_version":"1.0","time_elapsed":1002277,"medianTaps":{"calibrationPart1Median":35,"calibrationPart2Median":32}},{"task":"success","success":true,"trial_type":"success-screen-plugin","trial_index":139,"plugin_version":null,"time_elapsed":1002782},{"trial_type":"html-keyboard-response","trial_index":140,"plugin_version":null,"time_elapsed":1003291},{"task":"accept","reward":1,"bounds":[23.11013332091811,43.11013332091811],"originalBounds":[20,40],"delay":[0,0],"rt":7843,"stimulus":"\n<div\n  id=\"acceptance-container\"\n  style=\"display: flex; flex-direction: column; justify-content: center; align-items: center; height: 100%;\"\n>\n  <div\n    id=\"thermometer-container\"\n    style=\"display: flex; justify-content: center; align-items: center; height: 300px; width: 100px; border: 1px solid #000; margin-bottom: 10px; box-sizing: border-box;\"\n  >\n    <div\n      id=\"thermometer\"\n      style=\"position: relative; width: 100%; height: 100%; background-color: #e0e0e0; box-sizing: border-box;\"\n    >\n      <div\n        id=\"blue-area\"\n        style=\"position: absolute; bottom: 23.11013332091811%; height: 20%; width: 100%; background-color: blue;\"\n      ></div>\n      <div\n        id=\"lower-bound\"\n        style=\"position: absolute; bottom: 23.11013332091811%; width: 100%; height: 2px; background-color: black;\"\n      ></div>\n      <div\n        id=\"upper-bound\"\n        style=\"position: absolute; bottom: 43.11013332091811%; width: 100%; height: 2px; background-color: black;\"\n      ></div>\n    </div>\n  </div>\n  <p style=\"text-align: center;\">Reward:  1 points</p>\n  <p style=\"text-align: center;\"><br>Press the <b>Right Arrow</b> on your keyboard to accept the trial <svg class='right-arrow' style='width: 48px; height: 48px;'xmlns='http://www.w3.org/2000/svg' viewBox='0 0 16 16'><path fill-rule='evenodd' d='M10.146 4.646a.5.5 0 0 1 .708 0l2.646 2.647-2.646 2.646a.5.5 0 0 1-.708-.707L11.293 8H2a.5.5 0 0 1 0-1h9.293L10.146 5.354a.5.5 0 0 1 0-.708z'/></svg><br>or<br><svg class='left-arrow' style='width: 48px; height: 48px;' xmlns='http://www.w3.org/2000/svg' viewBox='0 0 16 16'><path fill-rule='evenodd' d='M5.854 4.646a.5.5 0 0 0-.708 0L2.5 7.293l2.646 2.647a.5.5 0 0 0 .708-.707L4.707 8H14a.5.5 0 0 0 0-1H4.707l1.147-1.146a.5.5 0 0 0 0-.708z'/></svg>Press the <b>Left Arrow</b> on your keyboard to skip the trial</p>\n</div>\n","response":"ArrowLeft","trial_type":"html-keyboard-response","trial_index":143,"plugin_version":null,"time_elapsed":1011136,"accepted":false},{"trial_type":"html-keyboard-response","trial_index":145,"plugin_version":null,"time_elapsed":1011339},{"task":"accept","reward":10,"bounds":[44.546383835203365,64.54638383520336],"originalBounds":[45,65],"delay":[0,0],"rt":1485,"stimulus":"\n<div\n  id=\"acceptance-container\"\n  style=\"display: flex; flex-direction: column; justify-content: center; align-items: center; height: 100%;\"\n>\n  <div\n    id=\"thermometer-container\"\n    style=\"display: flex; justify-content: center; align-items: center; height: 300px; width: 100px; border: 1px solid #000; margin-bottom: 10px; box-sizing: border-box;\"\n  >\n    <div\n      id=\"thermometer\"\n      style=\"position: relative; width: 100%; height: 100%; background-color: #e0e0e0; box-sizing: border-box;\"\n    >\n      <div\n        id=\"blue-area\"\n        style=\"position: absolute; bottom: 44.546383835203365%; height: 19.999999999999993%; width: 100%; background-color: blue;\"\n      ></div>\n      <div\n        id=\"lower-bound\"\n        style=\"position: absolute; bottom: 44.546383835203365%; width: 100%; height: 2px; background-color: black;\"\n      ></div>\n      <div\n        id=\"upper-bound\"\n        style=\"position: absolute; bottom: 64.54638383520336%; width: 100%; height: 2px; background-color: black;\"\n      ></div>\n    </div>\n  </div>\n  <p style=\"text-align: center;\">Reward:  10 points</p>\n  <p style=\"text-align: center;\"><br>Press the <b>Right Arrow</b> on your keyboard to accept the trial <svg class='right-arrow' style='width: 48px; height: 48px;'xmlns='http://www.w3.org/2000/svg' viewBox='0 0 16 16'><path fill-rule='evenodd' d='M10.146 4.646a.5.5 0 0 1 .708 0l2.646 2.647-2.646 2.646a.5.5 0 0 1-.708-.707L11.293 8H2a.5.5 0 0 1 0-1h9.293L10.146 5.354a.5.5 0 0 1 0-.708z'/></svg><br>or<br><svg class='left-arrow' style='width: 48px; height: 48px;' xmlns='http://www.w3.org/2000/svg' viewBox='0 0 16 16'><path fill-rule='evenodd' d='M5.854 4.646a.5.5 0 0 0-.708 0L2.5 7.293l2.646 2.647a.5.5 0 0 0 .708-.707L4.707 8H14a.5.5 0 0 0 0-1H4.707l1.147-1.146a.5.5 0 0 0 0-.708z'/></svg>Press the <b>Left Arrow</b> on your keyboard to skip the trial</p>\n</div>\n","response":"ArrowRight","trial_type":"html-keyboard-response","trial_index":146,"plugin_version":null,"time_elapsed":1012824,"accepted":true},{"task":"countdown","keyTappedEarlyFlag":false,"trial_type":"countdown-trial","trial_index":147,"plugin_version":"1.0","time_elapsed":1017149},{"blockType":"sync","task":"block","randomDelay":[0,0],"bounds":[44.546383835203365,64.54638383520336],"reward":10,"tapCount":24,"startTime":1017149,"endTime":1024150,"mercuryHeight":56,"error":"","errorOccurred":false,"keysReleasedFlag":false,"success":true,"keyTappedEarlyFlag":false,"keysState":{"a":true,"w":true,"e":true," ":true,"arrowright":true},"trial_type":"task-plugin","trial_index":148,"plugin_version":"1.0","time_elapsed":1024150,"medianTaps":{"calibrationPart1Median":35,"calibrationPart2Median":32}},{"errorOccurred":false,"trial_type":"release-keys","trial_index":149,"plugin_version":"1.0","time_elapsed":1024616},{"task":"success","success":true,"trial_type":"success-screen-plugin","trial_index":150,"plugin_version":null,"time_elapsed":1025118},{"trial_type":"html-keyboard-response","trial_index":152,"plugin_version":null,"time_elapsed":1028958},{"task":"accept","reward":3,"bounds":[42.148231488110156,62.148231488110156],"originalBounds":[45,65],"delay":[0,0],"rt":948,"stimulus":"\n<div\n  id=\"acceptance-container\"\n  style=\"display: flex; flex-direction: column; justify-content: center; align-items: center; height: 100%;\"\n>\n  <div\n    id=\"thermometer-container\"\n    style=\"display: flex; justify-content: center; align-items: center; height: 300px; width: 100px; border: 1px solid #000; margin-bottom: 10px; box-sizing: border-box;\"\n  >\n    <div\n      id=\"thermometer\"\n      style=\"position: relative; width: 100%; height: 100%; background-color: #e0e0e0; box-sizing: border-box;\"\n    >\n      <div\n        id=\"blue-area\"\n        style=\"position: absolute; bottom: 42.148231488110156%; height: 20%; width: 100%; background-color: blue;\"\n      ></div>\n      <div\n        id=\"lower-bound\"\n        style=\"position: absolute; bottom: 42.148231488110156%; width: 100%; height: 2px; background-color: black;\"\n      ></div>\n      <div\n        id=\"upper-bound\"\n        style=\"position: absolute; bottom: 62.148231488110156%; width: 100%; height: 2px; background-color: black;\"\n      ></div>\n    </div>\n  </div>\n  <p style=\"text-align: center;\">Reward:  3 points</p>\n  <p style=\"text-align: center;\"><br>Press the <b>Right Arrow</b> on your keyboard to accept the trial <svg class='right-arrow' style='width: 48px; height: 48px;'xmlns='http://www.w3.org/2000/svg' viewBox='0 0 16 16'><path fill-rule='evenodd' d='M10.146 4.646a.5.5 0 0 1 .708 0l2.646 2.647-2.646 2.646a.5.5 0 0 1-.708-.707L11.293 8H2a.5.5 0 0 1 0-1h9.293L10.146 5.354a.5.5 0 0 1 0-.708z'/></svg><br>or<br><svg class='left-arrow' style='width: 48px; height: 48px;' xmlns='http://www.w3.org/2000/svg' viewBox='0 0 16 16'><path fill-rule='evenodd' d='M5.854 4.646a.5.5 0 0 0-.708 0L2.5 7.293l2.646 2.647a.5.5 0 0 0 .708-.707L4.707 8H14a.5.5 0 0 0 0-1H4.707l1.147-1.146a.5.5 0 0 0 0-.708z'/></svg>Press the <b>Left Arrow</b> on your keyboard to skip the trial</p>\n</div>\n","response":"ArrowRight","trial_type":"html-keyboard-response","trial_index":154,"plugin_version":null,"time_elapsed":1029907,"accepted":true},{"blockType":"sync","task":"block","randomDelay":[0,0],"bounds":[42.148231488110156,62.148231488110156],"reward":3,"tapCount":0,"startTime":0,"endTime":0,"mercuryHeight":0,"error":"","errorOccurred":false,"keysReleasedFlag":false,"success":true,"keyTappedEarlyFlag":false,"keysState":{"a":true,"w":true,"e":true," ":true,"arrowright":true},"trial_type":"task-plugin","trial_index":155,"plugin_version":"1.0","time_elapsed":1029908,"medianTaps":{"calibrationPart1Median":35,"calibrationPart2Median":32}},{"task":"success","success":true,"trial_type":"success-screen-plugin","trial_index":157,"plugin_version":null,"time_elapsed":1030412},{"trial_type":"html-keyboard-response","trial_index":158,"plugin_version":null,"time_elapsed":1030714},{"task":"accept","reward":2,"bounds":[46.820624653536086,66.82062465353609],"originalBounds":[45,65],"delay":[0,0],"rt":2918,"stimulus":"\n<div\n  id=\"acceptance-container\"\n  style=\"display: flex; flex-direction: column; justify-content: center; align-items: center; height: 100%;\"\n>\n  <div\n    id=\"thermometer-container\"\n    style=\"display: flex; justify-content: center; align-items: center; height: 300px; width: 100px; border: 1px solid #000; margin-bottom: 10px; box-sizing: border-box;\"\n  >\n    <div\n      id=\"thermometer\"\n      style=\"position: relative; width: 100%; height: 100%; background-color: #e0e0e0; box-sizing: border-box;\"\n    >\n      <div\n        id=\"blue-area\"\n        style=\"position: absolute; bottom: 46.820624653536086%; height: 20%; width: 100%; background-color: blue;\"\n      ></div>\n      <div\n        id=\"lower-bound\"\n        style=\"position: absolute; bottom: 46.820624653536086%; width: 100%; height: 2px; background-color: black;\"\n      ></div>\n      <div\n        id=\"upper-bound\"\n        style=\"position: absolute; bottom: 66.82062465353609%; width: 100%; height: 2px; background-color: black;\"\n      ></div>\n    </div>\n  </div>\n  <p style=\"text-align: center;\">Reward:  2 points</p>\n  <p style=\"text-align: center;\"><br>Press the <b>Right Arrow</b> on your keyboard to accept the trial <svg class='right-arrow' style='width: 48px; height: 48px;'xmlns='http://www.w3.org/2000/svg' viewBox='0 0 16 16'><path fill-rule='evenodd' d='M10.146 4.646a.5.5 0 0 1 .708 0l2.646 2.647-2.646 2.646a.5.5 0 0 1-.708-.707L11.293 8H2a.5.5 0 0 1 0-1h9.293L10.146 5.354a.5.5 0 0 1 0-.708z'/></svg><br>or<br><svg class='left-arrow' style='width: 48px; height: 48px;' xmlns='http://www.w3.org/2000/svg' viewBox='0 0 16 16'><path fill-rule='evenodd' d='M5.854 4.646a.5.5 0 0 0-.708 0L2.5 7.293l2.646 2.647a.5.5 0 0 0 .708-.707L4.707 8H14a.5.5 0 0 0 0-1H4.707l1.147-1.146a.5.5 0 0 0 0-.708z'/></svg>Press the <b>Left Arrow</b> on your keyboard to skip the trial</p>\n</div>\n","response":"ArrowLeft","trial_type":"html-keyboard-response","trial_index":161,"plugin_version":null,"time_elapsed":1033633,"accepted":false},{"trial_type":"html-keyboard-response","trial_index":163,"plugin_version":null,"time_elapsed":1034137},{"task":"accept","reward":9,"bounds":[20.751391958292217,40.75139195829222],"originalBounds":[20,40],"delay":[0,0],"rt":1225,"stimulus":"\n<div\n  id=\"acceptance-container\"\n  style=\"display: flex; flex-direction: column; justify-content: center; align-items: center; height: 100%;\"\n>\n  <div\n    id=\"thermometer-container\"\n    style=\"display: flex; justify-content: center; align-items: center; height: 300px; width: 100px; border: 1px solid #000; margin-bottom: 10px; box-sizing: border-box;\"\n  >\n    <div\n      id=\"thermometer\"\n      style=\"position: relative; width: 100%; height: 100%; background-color: #e0e0e0; box-sizing: border-box;\"\n    >\n      <div\n        id=\"blue-area\"\n        style=\"position: absolute; bottom: 20.751391958292217%; height: 20%; width: 100%; background-color: blue;\"\n      ></div>\n      <div\n        id=\"lower-bound\"\n        style=\"position: absolute; bottom: 20.751391958292217%; width: 100%; height: 2px; background-color: black;\"\n      ></div>\n      <div\n        id=\"upper-bound\"\n        style=\"position: absolute; bottom: 40.75139195829222%; width: 100%; height: 2px; background-color: black;\"\n      ></div>\n    </div>\n  </div>\n  <p style=\"text-align: center;\">Reward:  9 points</p>\n  <p style=\"text-align: center;\"><br>Press the <b>Right Arrow</b> on your keyboard to accept the trial <svg class='right-arrow' style='width: 48px; height: 48px;'xmlns='http://www.w3.org/2000/svg' viewBox='0 0 16 16'><path fill-rule='evenodd' d='M10.146 4.646a.5.5 0 0 1 .708 0l2.646 2.647-2.646 2.646a.5.5 0 0 1-.708-.707L11.293 8H2a.5.5 0 0 1 0-1h9.293L10.146 5.354a.5.5 0 0 1 0-.708z'/></svg><br>or<br><svg class='left-arrow' style='width: 48px; height: 48px;' xmlns='http://www.w3.org/2000/svg' viewBox='0 0 16 16'><path fill-rule='evenodd' d='M5.854 4.646a.5.5 0 0 0-.708 0L2.5 7.293l2.646 2.647a.5.5 0 0 0 .708-.707L4.707 8H14a.5.5 0 0 0 0-1H4.707l1.147-1.146a.5.5 0 0 0 0-.708z'/></svg>Press the <b>Left Arrow</b> on your keyboard to skip the trial</p>\n</div>\n","response":"ArrowRight","trial_type":"html-keyboard-response","trial_index":164,"plugin_version":null,"time_elapsed":1035363,"accepted":true},{"task":"countdown","keyTappedEarlyFlag":false,"trial_type":"countdown-trial","trial_index":165,"plugin_version":"1.0","time_elapsed":1040157},{"blockType":"sync","task":"block","randomDelay":[0,0],"bounds":[20.751391958292217,40.75139195829222],"reward":9,"tapCount":22,"startTime":1040158,"endTime":1047159,"mercuryHeight":37,"error":"","errorOccurred":false,"keysReleasedFlag":false,"success":true,"keyTappedEarlyFlag":false,"keysState":{"a":true,"w":true,"e":true," ":true,"arrowright":true},"trial_type":"task-plugin","trial_index":166,"plugin_version":"1.0","time_elapsed":1047160,"medianTaps":{"calibrationPart1Median":35,"calibrationPart2Median":32}},{"errorOccurred":false,"trial_type":"release-keys","trial_index":167,"plugin_version":"1.0","time_elapsed":1047704},{"task":"success","success":true,"trial_type":"success-screen-plugin","trial_index":168,"plugin_version":null,"time_elapsed":1048205},{"trial_type":"html-keyboard-response","trial_index":170,"plugin_version":null,"time_elapsed":1050933},{"task":"accept","reward":25,"bounds":[43.88619430772822,63.88619430772822],"originalBounds":[45,65],"delay":[0,0],"rt":2189,"stimulus":"\n<div\n  id=\"acceptance-container\"\n  style=\"display: flex; flex-direction: column; justify-content: center; align-items: center; height: 100%;\"\n>\n  <div\n    id=\"thermometer-container\"\n    style=\"display: flex; justify-content: center; align-items: center; height: 300px; width: 100px; border: 1px solid #000; margin-bottom: 10px; box-sizing: border-box;\"\n  >\n    <div\n      id=\"thermometer\"\n      style=\"position: relative; width: 100%; height: 100%; background-color: #e0e0e0; box-sizing: border-box;\"\n    >\n      <div\n        id=\"blue-area\"\n        style=\"position: absolute; bottom: 43.88619430772822%; height: 20%; width: 100%; background-color: blue;\"\n      ></div>\n      <div\n        id=\"lower-bound\"\n        style=\"position: absolute; bottom: 43.88619430772822%; width: 100%; height: 2px; background-color: black;\"\n      ></div>\n      <div\n        id=\"upper-bound\"\n        style=\"position: absolute; bottom: 63.88619430772822%; width: 100%; height: 2px; background-color: black;\"\n      ></div>\n    </div>\n  </div>\n  <p style=\"text-align: center;\">Reward:  25 points</p>\n  <p style=\"text-align: center;\"><br>Press the <b>Right Arrow</b> on your keyboard to accept the trial <svg class='right-arrow' style='width: 48px; height: 48px;'xmlns='http://www.w3.org/2000/svg' viewBox='0 0 16 16'><path fill-rule='evenodd' d='M10.146 4.646a.5.5 0 0 1 .708 0l2.646 2.647-2.646 2.646a.5.5 0 0 1-.708-.707L11.293 8H2a.5.5 0 0 1 0-1h9.293L10.146 5.354a.5.5 0 0 1 0-.708z'/></svg><br>or<br><svg class='left-arrow' style='width: 48px; height: 48px;' xmlns='http://www.w3.org/2000/svg' viewBox='0 0 16 16'><path fill-rule='evenodd' d='M5.854 4.646a.5.5 0 0 0-.708 0L2.5 7.293l2.646 2.647a.5.5 0 0 0 .708-.707L4.707 8H14a.5.5 0 0 0 0-1H4.707l1.147-1.146a.5.5 0 0 0 0-.708z'/></svg>Press the <b>Left Arrow</b> on your keyboard to skip the trial</p>\n</div>\n","response":"ArrowRight","trial_type":"html-keyboard-response","trial_index":172,"plugin_version":null,"time_elapsed":1053123,"accepted":true},{"blockType":"sync","task":"block","randomDelay":[0,0],"bounds":[43.88619430772822,63.88619430772822],"reward":25,"tapCount":0,"startTime":0,"endTime":0,"mercuryHeight":0,"error":"","errorOccurred":false,"keysReleasedFlag":false,"success":true,"keyTappedEarlyFlag":false,"keysState":{"a":true,"w":true,"e":true," ":true,"arrowright":true},"trial_type":"task-plugin","trial_index":173,"plugin_version":"1.0","time_elapsed":1053125,"medianTaps":{"calibrationPart1Median":35,"calibrationPart2Median":32}},{"task":"success","success":true,"trial_type":"success-screen-plugin","trial_index":175,"plugin_version":null,"time_elapsed":1053631},{"trial_type":"html-keyboard-response","trial_index":176,"plugin_version":null,"time_elapsed":1053935},{"task":"accept","reward":11,"bounds":[77.72563294467298,97.72563294467298],"originalBounds":[70,90],"delay":[0,0],"rt":1954,"stimulus":"\n<div\n  id=\"acceptance-container\"\n  style=\"display: flex; flex-direction: column; justify-content: center; align-items: center; height: 100%;\"\n>\n  <div\n    id=\"thermometer-container\"\n    style=\"display: flex; justify-content: center; align-items: center; height: 300px; width: 100px; border: 1px solid #000; margin-bottom: 10px; box-sizing: border-box;\"\n  >\n    <div\n      id=\"thermometer\"\n      style=\"position: relative; width: 100%; height: 100%; background-color: #e0e0e0; box-sizing: border-box;\"\n    >\n      <div\n        id=\"blue-area\"\n        style=\"position: absolute; bottom: 77.72563294467298%; height: 20%; width: 100%; background-color: blue;\"\n      ></div>\n      <div\n        id=\"lower-bound\"\n        style=\"position: absolute; bottom: 77.72563294467298%; width: 100%; height: 2px; background-color: black;\"\n      ></div>\n      <div\n        id=\"upper-bound\"\n        style=\"position: absolute; bottom: 97.72563294467298%; width: 100%; height: 2px; background-color: black;\"\n      ></div>\n    </div>\n  </div>\n  <p style=\"text-align: center;\">Reward:  11 points</p>\n  <p style=\"text-align: center;\"><br>Press the <b>Right Arrow</b> on your keyboard to accept the trial <svg class='right-arrow' style='width: 48px; height: 48px;'xmlns='http://www.w3.org/2000/svg' viewBox='0 0 16 16'><path fill-rule='evenodd' d='M10.146 4.646a.5.5 0 0 1 .708 0l2.646 2.647-2.646 2.646a.5.5 0 0 1-.708-.707L11.293 8H2a.5.5 0 0 1 0-1h9.293L10.146 5.354a.5.5 0 0 1 0-.708z'/></svg><br>or<br><svg class='left-arrow' style='width: 48px; height: 48px;' xmlns='http://www.w3.org/2000/svg' viewBox='0 0 16 16'><path fill-rule='evenodd' d='M5.854 4.646a.5.5 0 0 0-.708 0L2.5 7.293l2.646 2.647a.5.5 0 0 0 .708-.707L4.707 8H14a.5.5 0 0 0 0-1H4.707l1.147-1.146a.5.5 0 0 0 0-.708z'/></svg>Press the <b>Left Arrow</b> on your keyboard to skip the trial</p>\n</div>\n","response":"ArrowRight","trial_type":"html-keyboard-response","trial_index":179,"plugin_version":null,"time_elapsed":1055892,"accepted":true},{"blockType":"sync","task":"block","randomDelay":[0,0],"bounds":[77.72563294467298,97.72563294467298],"reward":11,"tapCount":0,"startTime":0,"endTime":0,"mercuryHeight":0,"error":"","errorOccurred":false,"keysReleasedFlag":false,"success":true,"keyTappedEarlyFlag":false,"keysState":{"a":true,"w":true,"e":true," ":true,"arrowright":true},"trial_type":"task-plugin","trial_index":180,"plugin_version":"1.0","time_elapsed":1055893,"medianTaps":{"calibrationPart1Median":35,"calibrationPart2Median":32}},{"task":"success","success":true,"trial_type":"success-screen-plugin","trial_index":182,"plugin_version":null,"time_elapsed":1056399},{"trial_type":"html-keyboard-response","trial_index":183,"plugin_version":null,"time_elapsed":1056804},{"task":"accept","reward":25,"bounds":[19.54235758264911,39.54235758264911],"originalBounds":[20,40],"delay":[0,0],"rt":1732,"stimulus":"\n<div\n  id=\"acceptance-container\"\n  style=\"display: flex; flex-direction: column; justify-content: center; align-items: center; height: 100%;\"\n>\n  <div\n    id=\"thermometer-container\"\n    style=\"display: flex; justify-content: center; align-items: center; height: 300px; width: 100px; border: 1px solid #000; margin-bottom: 10px; box-sizing: border-box;\"\n  >\n    <div\n      id=\"thermometer\"\n      style=\"position: relative; width: 100%; height: 100%; background-color: #e0e0e0; box-sizing: border-box;\"\n    >\n      <div\n        id=\"blue-area\"\n        style=\"position: absolute; bottom: 19.54235758264911%; height: 20%; width: 100%; background-color: blue;\"\n      ></div>\n      <div\n        id=\"lower-bound\"\n        style=\"position: absolute; bottom: 19.54235758264911%; width: 100%; height: 2px; background-color: black;\"\n      ></div>\n      <div\n        id=\"upper-bound\"\n        style=\"position: absolute; bottom: 39.54235758264911%; width: 100%; height: 2px; background-color: black;\"\n      ></div>\n    </div>\n  </div>\n  <p style=\"text-align: center;\">Reward:  25 points</p>\n  <p style=\"text-align: center;\"><br>Press the <b>Right Arrow</b> on your keyboard to accept the trial <svg class='right-arrow' style='width: 48px; height: 48px;'xmlns='http://www.w3.org/2000/svg' viewBox='0 0 16 16'><path fill-rule='evenodd' d='M10.146 4.646a.5.5 0 0 1 .708 0l2.646 2.647-2.646 2.646a.5.5 0 0 1-.708-.707L11.293 8H2a.5.5 0 0 1 0-1h9.293L10.146 5.354a.5.5 0 0 1 0-.708z'/></svg><br>or<br><svg class='left-arrow' style='width: 48px; height: 48px;' xmlns='http://www.w3.org/2000/svg' viewBox='0 0 16 16'><path fill-rule='evenodd' d='M5.854 4.646a.5.5 0 0 0-.708 0L2.5 7.293l2.646 2.647a.5.5 0 0 0 .708-.707L4.707 8H14a.5.5 0 0 0 0-1H4.707l1.147-1.146a.5.5 0 0 0 0-.708z'/></svg>Press the <b>Left Arrow</b> on your keyboard to skip the trial</p>\n</div>\n","response":"ArrowRight","trial_type":"html-keyboard-response","trial_index":186,"plugin_version":null,"time_elapsed":1058538,"accepted":true},{"blockType":"sync","task":"block","randomDelay":[0,0],"bounds":[19.54235758264911,39.54235758264911],"reward":25,"tapCount":0,"startTime":0,"endTime":0,"mercuryHeight":0,"error":"","errorOccurred":false,"keysReleasedFlag":false,"success":true,"keyTappedEarlyFlag":false,"keysState":{"a":true,"w":true,"e":true," ":true,"arrowright":true},"trial_type":"task-plugin","trial_index":187,"plugin_version":"1.0","time_elapsed":1058539,"medianTaps":{"calibrationPart1Median":35,"calibrationPart2Median":32}},{"task":"success","success":true,"trial_type":"success-screen-plugin","trial_index":189,"plugin_version":null,"time_elapsed":1059044},{"trial_type":"html-keyboard-response","trial_index":190,"plugin_version":null,"time_elapsed":1059552},{"task":"accept","reward":25,"bounds":[69.19770570252889,89.19770570252889],"originalBounds":[70,90],"delay":[0,0],"rt":1578,"stimulus":"\n<div\n  id=\"acceptance-container\"\n  style=\"display: flex; flex-direction: column; justify-content: center; align-items: center; height: 100%;\"\n>\n  <div\n    id=\"thermometer-container\"\n    style=\"display: flex; justify-content: center; align-items: center; height: 300px; width: 100px; border: 1px solid #000; margin-bottom: 10px; box-sizing: border-box;\"\n  >\n    <div\n      id=\"thermometer\"\n      style=\"position: relative; width: 100%; height: 100%; background-color: #e0e0e0; box-sizing: border-box;\"\n    >\n      <div\n        id=\"blue-area\"\n        style=\"position: absolute; bottom: 69.19770570252889%; height: 20%; width: 100%; background-color: blue;\"\n      ></div>\n      <div\n        id=\"lower-bound\"\n        style=\"position: absolute; bottom: 69.19770570252889%; width: 100%; height: 2px; background-color: black;\"\n      ></div>\n      <div\n        id=\"upper-bound\"\n        style=\"position: absolute; bottom: 89.19770570252889%; width: 100%; height: 2px; background-color: black;\"\n      ></div>\n    </div>\n  </div>\n  <p style=\"text-align: center;\">Reward:  25 points</p>\n  <p style=\"text-align: center;\"><br>Press the <b>Right Arrow</b> on your keyboard to accept the trial <svg class='right-arrow' style='width: 48px; height: 48px;'xmlns='http://www.w3.org/2000/svg' viewBox='0 0 16 16'><path fill-rule='evenodd' d='M10.146 4.646a.5.5 0 0 1 .708 0l2.646 2.647-2.646 2.646a.5.5 0 0 1-.708-.707L11.293 8H2a.5.5 0 0 1 0-1h9.293L10.146 5.354a.5.5 0 0 1 0-.708z'/></svg><br>or<br><svg class='left-arrow' style='width: 48px; height: 48px;' xmlns='http://www.w3.org/2000/svg' viewBox='0 0 16 16'><path fill-rule='evenodd' d='M5.854 4.646a.5.5 0 0 0-.708 0L2.5 7.293l2.646 2.647a.5.5 0 0 0 .708-.707L4.707 8H14a.5.5 0 0 0 0-1H4.707l1.147-1.146a.5.5 0 0 0 0-.708z'/></svg>Press the <b>Left Arrow</b> on your keyboard to skip the trial</p>\n</div>\n","response":"ArrowRight","trial_type":"html-keyboard-response","trial_index":193,"plugin_version":null,"time_elapsed":1061131,"accepted":true},{"task":"countdown","keyTappedEarlyFlag":false,"trial_type":"countdown-trial","trial_index":194,"plugin_version":"1.0","time_elapsed":1066525},{"blockType":"sync","task":"block","randomDelay":[0,0],"bounds":[69.19770570252889,89.19770570252889],"reward":25,"tapCount":28,"startTime":1066526,"endTime":1073526,"mercuryHeight":84,"error":"","errorOccurred":false,"keysReleasedFlag":false,"success":true,"keyTappedEarlyFlag":false,"keysState":{"a":true,"w":true,"e":true," ":true,"arrowright":true},"trial_type":"task-plugin","trial_index":195,"plugin_version":"1.0","time_elapsed":1073527,"medianTaps":{"calibrationPart1Median":35,"calibrationPart2Median":32}},{"errorOccurred":false,"trial_type":"release-keys","trial_index":196,"plugin_version":"1.0","time_elapsed":1074010},{"task":"success","success":true,"trial_type":"success-screen-plugin","trial_index":197,"plugin_version":null,"time_elapsed":1074512},{"trial_type":"html-keyboard-response","trial_index":199,"plugin_version":null,"time_elapsed":1078157},{"task":"accept","reward":3,"bounds":[23.03836464975673,43.03836464975673],"originalBounds":[20,40],"delay":[0,0],"rt":1909,"stimulus":"\n<div\n  id=\"acceptance-container\"\n  style=\"display: flex; flex-direction: column; justify-content: center; align-items: center; height: 100%;\"\n>\n  <div\n    id=\"thermometer-container\"\n    style=\"display: flex; justify-content: center; align-items: center; height: 300px; width: 100px; border: 1px solid #000; margin-bottom: 10px; box-sizing: border-box;\"\n  >\n    <div\n      id=\"thermometer\"\n      style=\"position: relative; width: 100%; height: 100%; background-color: #e0e0e0; box-sizing: border-box;\"\n    >\n      <div\n        id=\"blue-area\"\n        style=\"position: absolute; bottom: 23.03836464975673%; height: 20%; width: 100%; background-color: blue;\"\n      ></div>\n      <div\n        id=\"lower-bound\"\n        style=\"position: absolute; bottom: 23.03836464975673%; width: 100%; height: 2px; background-color: black;\"\n      ></div>\n      <div\n        id=\"upper-bound\"\n        style=\"position: absolute; bottom: 43.03836464975673%; width: 100%; height: 2px; background-color: black;\"\n      ></div>\n    </div>\n  </div>\n  <p style=\"text-align: center;\">Reward:  3 points</p>\n  <p style=\"text-align: center;\"><br>Press the <b>Right Arrow</b> on your keyboard to accept the trial <svg class='right-arrow' style='width: 48px; height: 48px;'xmlns='http://www.w3.org/2000/svg' viewBox='0 0 16 16'><path fill-rule='evenodd' d='M10.146 4.646a.5.5 0 0 1 .708 0l2.646 2.647-2.646 2.646a.5.5 0 0 1-.708-.707L11.293 8H2a.5.5 0 0 1 0-1h9.293L10.146 5.354a.5.5 0 0 1 0-.708z'/></svg><br>or<br><svg class='left-arrow' style='width: 48px; height: 48px;' xmlns='http://www.w3.org/2000/svg' viewBox='0 0 16 16'><path fill-rule='evenodd' d='M5.854 4.646a.5.5 0 0 0-.708 0L2.5 7.293l2.646 2.647a.5.5 0 0 0 .708-.707L4.707 8H14a.5.5 0 0 0 0-1H4.707l1.147-1.146a.5.5 0 0 0 0-.708z'/></svg>Press the <b>Left Arrow</b> on your keyboard to skip the trial</p>\n</div>\n","response":"ArrowLeft","trial_type":"html-keyboard-response","trial_index":201,"plugin_version":null,"time_elapsed":1080067,"accepted":false},{"trial_type":"html-keyboard-response","trial_index":203,"plugin_version":null,"time_elapsed":1080474},{"task":"accept","reward":11,"bounds":[48.50993521278349,68.50993521278349],"originalBounds":[45,65],"delay":[0,0],"rt":1080,"stimulus":"\n<div\n  id=\"acceptance-container\"\n  style=\"display: flex; flex-direction: column; justify-content: center; align-items: center; height: 100%;\"\n>\n  <div\n    id=\"thermometer-container\"\n    style=\"display: flex; justify-content: center; align-items: center; height: 300px; width: 100px; border: 1px solid #000; margin-bottom: 10px; box-sizing: border-box;\"\n  >\n    <div\n      id=\"thermometer\"\n      style=\"position: relative; width: 100%; height: 100%; background-color: #e0e0e0; box-sizing: border-box;\"\n    >\n      <div\n        id=\"blue-area\"\n        style=\"position: absolute; bottom: 48.50993521278349%; height: 20%; width: 100%; background-color: blue;\"\n      ></div>\n      <div\n        id=\"lower-bound\"\n        style=\"position: absolute; bottom: 48.50993521278349%; width: 100%; height: 2px; background-color: black;\"\n      ></div>\n      <div\n        id=\"upper-bound\"\n        style=\"position: absolute; bottom: 68.50993521278349%; width: 100%; height: 2px; background-color: black;\"\n      ></div>\n    </div>\n  </div>\n  <p style=\"text-align: center;\">Reward:  11 points</p>\n  <p style=\"text-align: center;\"><br>Press the <b>Right Arrow</b> on your keyboard to accept the trial <svg class='right-arrow' style='width: 48px; height: 48px;'xmlns='http://www.w3.org/2000/svg' viewBox='0 0 16 16'><path fill-rule='evenodd' d='M10.146 4.646a.5.5 0 0 1 .708 0l2.646 2.647-2.646 2.646a.5.5 0 0 1-.708-.707L11.293 8H2a.5.5 0 0 1 0-1h9.293L10.146 5.354a.5.5 0 0 1 0-.708z'/></svg><br>or<br><svg class='left-arrow' style='width: 48px; height: 48px;' xmlns='http://www.w3.org/2000/svg' viewBox='0 0 16 16'><path fill-rule='evenodd' d='M5.854 4.646a.5.5 0 0 0-.708 0L2.5 7.293l2.646 2.647a.5.5 0 0 0 .708-.707L4.707 8H14a.5.5 0 0 0 0-1H4.707l1.147-1.146a.5.5 0 0 0 0-.708z'/></svg>Press the <b>Left Arrow</b> on your keyboard to skip the trial</p>\n</div>\n","response":"ArrowRight","trial_type":"html-keyboard-response","trial_index":204,"plugin_version":null,"time_elapsed":1081555,"accepted":true},{"blockType":"sync","task":"block","randomDelay":[0,0],"bounds":[48.50993521278349,68.50993521278349],"reward":11,"tapCount":0,"startTime":0,"endTime":0,"mercuryHeight":0,"error":"","errorOccurred":false,"keysReleasedFlag":false,"success":true,"keyTappedEarlyFlag":false,"keysState":{"a":true,"w":true,"e":true," ":true,"arrowright":true},"trial_type":"task-plugin","trial_index":205,"plugin_version":"1.0","time_elapsed":1081557,"medianTaps":{"calibrationPart1Median":35,"calibrationPart2Median":32}},{"task":"success","success":true,"trial_type":"success-screen-plugin","trial_index":207,"plugin_version":null,"time_elapsed":1082063},{"trial_type":"html-keyboard-response","trial_index":208,"plugin_version":null,"time_elapsed":1082470},{"task":"accept","reward":1,"bounds":[70.12055139319183,90.12055139319183],"originalBounds":[70,90],"delay":[0,0],"rt":1179,"stimulus":"\n<div\n  id=\"acceptance-container\"\n  style=\"display: flex; flex-direction: column; justify-content: center; align-items: center; height: 100%;\"\n>\n  <div\n    id=\"thermometer-container\"\n    style=\"display: flex; justify-content: center; align-items: center; height: 300px; width: 100px; border: 1px solid #000; margin-bottom: 10px; box-sizing: border-box;\"\n  >\n    <div\n      id=\"thermometer\"\n      style=\"position: relative; width: 100%; height: 100%; background-color: #e0e0e0; box-sizing: border-box;\"\n    >\n      <div\n        id=\"blue-area\"\n        style=\"position: absolute; bottom: 70.12055139319183%; height: 20%; width: 100%; background-color: blue;\"\n      ></div>\n      <div\n        id=\"lower-bound\"\n        style=\"position: absolute; bottom: 70.12055139319183%; width: 100%; height: 2px; background-color: black;\"\n      ></div>\n      <div\n        id=\"upper-bound\"\n        style=\"position: absolute; bottom: 90.12055139319183%; width: 100%; height: 2px; background-color: black;\"\n      ></div>\n    </div>\n  </div>\n  <p style=\"text-align: center;\">Reward:  1 points</p>\n  <p style=\"text-align: center;\"><br>Press the <b>Right Arrow</b> on your keyboard to accept the trial <svg class='right-arrow' style='width: 48px; height: 48px;'xmlns='http://www.w3.org/2000/svg' viewBox='0 0 16 16'><path fill-rule='evenodd' d='M10.146 4.646a.5.5 0 0 1 .708 0l2.646 2.647-2.646 2.646a.5.5 0 0 1-.708-.707L11.293 8H2a.5.5 0 0 1 0-1h9.293L10.146 5.354a.5.5 0 0 1 0-.708z'/></svg><br>or<br><svg class='left-arrow' style='width: 48px; height: 48px;' xmlns='http://www.w3.org/2000/svg' viewBox='0 0 16 16'><path fill-rule='evenodd' d='M5.854 4.646a.5.5 0 0 0-.708 0L2.5 7.293l2.646 2.647a.5.5 0 0 0 .708-.707L4.707 8H14a.5.5 0 0 0 0-1H4.707l1.147-1.146a.5.5 0 0 0 0-.708z'/></svg>Press the <b>Left Arrow</b> on your keyboard to skip the trial</p>\n</div>\n","response":"ArrowLeft","trial_type":"html-keyboard-response","trial_index":211,"plugin_version":null,"time_elapsed":1083651,"accepted":false},{"trial_type":"html-keyboard-response","trial_index":213,"plugin_version":null,"time_elapsed":1084057},{"task":"accept","reward":2,"bounds":[44.92377385666505,64.92377385666505],"originalBounds":[45,65],"delay":[0,0],"rt":2096,"stimulus":"\n<div\n  id=\"acceptance-container\"\n  style=\"display: flex; flex-direction: column; justify-content: center; align-items: center; height: 100%;\"\n>\n  <div\n    id=\"thermometer-container\"\n    style=\"display: flex; justify-content: center; align-items: center; height: 300px; width: 100px; border: 1px solid #000; margin-bottom: 10px; box-sizing: border-box;\"\n  >\n    <div\n      id=\"thermometer\"\n      style=\"position: relative; width: 100%; height: 100%; background-color: #e0e0e0; box-sizing: border-box;\"\n    >\n      <div\n        id=\"blue-area\"\n        style=\"position: absolute; bottom: 44.92377385666505%; height: 20%; width: 100%; background-color: blue;\"\n      ></div>\n      <div\n        id=\"lower-bound\"\n        style=\"position: absolute; bottom: 44.92377385666505%; width: 100%; height: 2px; background-color: black;\"\n      ></div>\n      <div\n        id=\"upper-bound\"\n        style=\"position: absolute; bottom: 64.92377385666505%; width: 100%; height: 2px; background-color: black;\"\n      ></div>\n    </div>\n  </div>\n  <p style=\"text-align: center;\">Reward:  2 points</p>\n  <p style=\"text-align: center;\"><br>Press the <b>Right Arrow</b> on your keyboard to accept the trial <svg class='right-arrow' style='width: 48px; height: 48px;'xmlns='http://www.w3.org/2000/svg' viewBox='0 0 16 16'><path fill-rule='evenodd' d='M10.146 4.646a.5.5 0 0 1 .708 0l2.646 2.647-2.646 2.646a.5.5 0 0 1-.708-.707L11.293 8H2a.5.5 0 0 1 0-1h9.293L10.146 5.354a.5.5 0 0 1 0-.708z'/></svg><br>or<br><svg class='left-arrow' style='width: 48px; height: 48px;' xmlns='http://www.w3.org/2000/svg' viewBox='0 0 16 16'><path fill-rule='evenodd' d='M5.854 4.646a.5.5 0 0 0-.708 0L2.5 7.293l2.646 2.647a.5.5 0 0 0 .708-.707L4.707 8H14a.5.5 0 0 0 0-1H4.707l1.147-1.146a.5.5 0 0 0 0-.708z'/></svg>Press the <b>Left Arrow</b> on your keyboard to skip the trial</p>\n</div>\n","response":"ArrowLeft","trial_type":"html-keyboard-response","trial_index":214,"plugin_version":null,"time_elapsed":1086155,"accepted":false},{"trial_type":"html-keyboard-response","trial_index":216,"plugin_version":null,"time_elapsed":1086459},{"task":"accept","reward":11,"bounds":[75.2977081650024,95.2977081650024],"originalBounds":[70,90],"delay":[0,0],"rt":2079,"stimulus":"\n<div\n  id=\"acceptance-container\"\n  style=\"display: flex; flex-direction: column; justify-content: center; align-items: center; height: 100%;\"\n>\n  <div\n    id=\"thermometer-container\"\n    style=\"display: flex; justify-content: center; align-items: center; height: 300px; width: 100px; border: 1px solid #000; margin-bottom: 10px; box-sizing: border-box;\"\n  >\n    <div\n      id=\"thermometer\"\n      style=\"position: relative; width: 100%; height: 100%; background-color: #e0e0e0; box-sizing: border-box;\"\n    >\n      <div\n        id=\"blue-area\"\n        style=\"position: absolute; bottom: 75.2977081650024%; height: 20%; width: 100%; background-color: blue;\"\n      ></div>\n      <div\n        id=\"lower-bound\"\n        style=\"position: absolute; bottom: 75.2977081650024%; width: 100%; height: 2px; background-color: black;\"\n      ></div>\n      <div\n        id=\"upper-bound\"\n        style=\"position: absolute; bottom: 95.2977081650024%; width: 100%; height: 2px; background-color: black;\"\n      ></div>\n    </div>\n  </div>\n  <p style=\"text-align: center;\">Reward:  11 points</p>\n  <p style=\"text-align: center;\"><br>Press the <b>Right Arrow</b> on your keyboard to accept the trial <svg class='right-arrow' style='width: 48px; height: 48px;'xmlns='http://www.w3.org/2000/svg' viewBox='0 0 16 16'><path fill-rule='evenodd' d='M10.146 4.646a.5.5 0 0 1 .708 0l2.646 2.647-2.646 2.646a.5.5 0 0 1-.708-.707L11.293 8H2a.5.5 0 0 1 0-1h9.293L10.146 5.354a.5.5 0 0 1 0-.708z'/></svg><br>or<br><svg class='left-arrow' style='width: 48px; height: 48px;' xmlns='http://www.w3.org/2000/svg' viewBox='0 0 16 16'><path fill-rule='evenodd' d='M5.854 4.646a.5.5 0 0 0-.708 0L2.5 7.293l2.646 2.647a.5.5 0 0 0 .708-.707L4.707 8H14a.5.5 0 0 0 0-1H4.707l1.147-1.146a.5.5 0 0 0 0-.708z'/></svg>Press the <b>Left Arrow</b> on your keyboard to skip the trial</p>\n</div>\n","response":"ArrowRight","trial_type":"html-keyboard-response","trial_index":217,"plugin_version":null,"time_elapsed":1088539,"accepted":true},{"blockType":"sync","task":"block","randomDelay":[0,0],"bounds":[75.2977081650024,95.2977081650024],"reward":11,"tapCount":0,"startTime":0,"endTime":0,"mercuryHeight":0,"error":"","errorOccurred":false,"keysReleasedFlag":false,"success":true,"keyTappedEarlyFlag":false,"keysState":{"a":true,"w":true,"e":true," ":true,"arrowright":true},"trial_type":"task-plugin","trial_index":218,"plugin_version":"1.0","time_elapsed":1088541,"medianTaps":{"calibrationPart1Median":35,"calibrationPart2Median":32}},{"task":"success","success":true,"trial_type":"success-screen-plugin","trial_index":220,"plugin_version":null,"time_elapsed":1089048},{"trial_type":"html-keyboard-response","trial_index":221,"plugin_version":null,"time_elapsed":1089352},{"task":"accept","reward":26,"bounds":[62.61318842130399,82.61318842130399],"originalBounds":[70,90],"delay":[0,0],"rt":1162,"stimulus":"\n<div\n  id=\"acceptance-container\"\n  style=\"display: flex; flex-direction: column; justify-content: center; align-items: center; height: 100%;\"\n>\n  <div\n    id=\"thermometer-container\"\n    style=\"display: flex; justify-content: center; align-items: center; height: 300px; width: 100px; border: 1px solid #000; margin-bottom: 10px; box-sizing: border-box;\"\n  >\n    <div\n      id=\"thermometer\"\n      style=\"position: relative; width: 100%; height: 100%; background-color: #e0e0e0; box-sizing: border-box;\"\n    >\n      <div\n        id=\"blue-area\"\n        style=\"position: absolute; bottom: 62.61318842130399%; height: 20%; width: 100%; background-color: blue;\"\n      ></div>\n      <div\n        id=\"lower-bound\"\n        style=\"position: absolute; bottom: 62.61318842130399%; width: 100%; height: 2px; background-color: black;\"\n      ></div>\n      <div\n        id=\"upper-bound\"\n        style=\"position: absolute; bottom: 82.61318842130399%; width: 100%; height: 2px; background-color: black;\"\n      ></div>\n    </div>\n  </div>\n  <p style=\"text-align: center;\">Reward:  26 points</p>\n  <p style=\"text-align: center;\"><br>Press the <b>Right Arrow</b> on your keyboard to accept the trial <svg class='right-arrow' style='width: 48px; height: 48px;'xmlns='http://www.w3.org/2000/svg' viewBox='0 0 16 16'><path fill-rule='evenodd' d='M10.146 4.646a.5.5 0 0 1 .708 0l2.646 2.647-2.646 2.646a.5.5 0 0 1-.708-.707L11.293 8H2a.5.5 0 0 1 0-1h9.293L10.146 5.354a.5.5 0 0 1 0-.708z'/></svg><br>or<br><svg class='left-arrow' style='width: 48px; height: 48px;' xmlns='http://www.w3.org/2000/svg' viewBox='0 0 16 16'><path fill-rule='evenodd' d='M5.854 4.646a.5.5 0 0 0-.708 0L2.5 7.293l2.646 2.647a.5.5 0 0 0 .708-.707L4.707 8H14a.5.5 0 0 0 0-1H4.707l1.147-1.146a.5.5 0 0 0 0-.708z'/></svg>Press the <b>Left Arrow</b> on your keyboard to skip the trial</p>\n</div>\n","response":"ArrowRight","trial_type":"html-keyboard-response","trial_index":224,"plugin_version":null,"time_elapsed":1090516,"accepted":true},{"task":"countdown","keyTappedEarlyFlag":false,"trial_type":"countdown-trial","trial_index":225,"plugin_version":"1.0","time_elapsed":1095214},{"blockType":"sync","task":"block","randomDelay":[0,0],"bounds":[62.61318842130399,82.61318842130399],"reward":26,"tapCount":27,"startTime":1095215,"endTime":1102216,"mercuryHeight":72.5,"error":"","errorOccurred":false,"keysReleasedFlag":false,"success":true,"keyTappedEarlyFlag":false,"keysState":{"a":true,"w":true,"e":true," ":true,"arrowright":true},"trial_type":"task-plugin","trial_index":226,"plugin_version":"1.0","time_elapsed":1102217,"medianTaps":{"calibrationPart1Median":35,"calibrationPart2Median":32}},{"errorOccurred":false,"trial_type":"release-keys","trial_index":227,"plugin_version":"1.0","time_elapsed":1102686},{"task":"success","success":true,"trial_type":"success-screen-plugin","trial_index":228,"plugin_version":null,"time_elapsed":1103188},{"trial_type":"html-keyboard-response","trial_index":230,"plugin_version":null,"time_elapsed":1106430},{"task":"accept","reward":24,"bounds":[40.04028051860278,60.04028051860278],"originalBounds":[45,65],"delay":[0,0],"rt":1514,"stimulus":"\n<div\n  id=\"acceptance-container\"\n  style=\"display: flex; flex-direction: column; justify-content: center; align-items: center; height: 100%;\"\n>\n  <div\n    id=\"thermometer-container\"\n    style=\"display: flex; justify-content: center; align-items: center; height: 300px; width: 100px; border: 1px solid #000; margin-bottom: 10px; box-sizing: border-box;\"\n  >\n    <div\n      id=\"thermometer\"\n      style=\"position: relative; width: 100%; height: 100%; background-color: #e0e0e0; box-sizing: border-box;\"\n    >\n      <div\n        id=\"blue-area\"\n        style=\"position: absolute; bottom: 40.04028051860278%; height: 20%; width: 100%; background-color: blue;\"\n      ></div>\n      <div\n        id=\"lower-bound\"\n        style=\"position: absolute; bottom: 40.04028051860278%; width: 100%; height: 2px; background-color: black;\"\n      ></div>\n      <div\n        id=\"upper-bound\"\n        style=\"position: absolute; bottom: 60.04028051860278%; width: 100%; height: 2px; background-color: black;\"\n      ></div>\n    </div>\n  </div>\n  <p style=\"text-align: center;\">Reward:  24 points</p>\n  <p style=\"text-align: center;\"><br>Press the <b>Right Arrow</b> on your keyboard to accept the trial <svg class='right-arrow' style='width: 48px; height: 48px;'xmlns='http://www.w3.org/2000/svg' viewBox='0 0 16 16'><path fill-rule='evenodd' d='M10.146 4.646a.5.5 0 0 1 .708 0l2.646 2.647-2.646 2.646a.5.5 0 0 1-.708-.707L11.293 8H2a.5.5 0 0 1 0-1h9.293L10.146 5.354a.5.5 0 0 1 0-.708z'/></svg><br>or<br><svg class='left-arrow' style='width: 48px; height: 48px;' xmlns='http://www.w3.org/2000/svg' viewBox='0 0 16 16'><path fill-rule='evenodd' d='M5.854 4.646a.5.5 0 0 0-.708 0L2.5 7.293l2.646 2.647a.5.5 0 0 0 .708-.707L4.707 8H14a.5.5 0 0 0 0-1H4.707l1.147-1.146a.5.5 0 0 0 0-.708z'/></svg>Press the <b>Left Arrow</b> on your keyboard to skip the trial</p>\n</div>\n","response":"ArrowRight","trial_type":"html-keyboard-response","trial_index":232,"plugin_version":null,"time_elapsed":1107944,"accepted":true},{"blockType":"sync","task":"block","randomDelay":[0,0],"bounds":[40.04028051860278,60.04028051860278],"reward":24,"tapCount":0,"startTime":0,"endTime":0,"mercuryHeight":0,"error":"","errorOccurred":false,"keysReleasedFlag":false,"success":true,"keyTappedEarlyFlag":false,"keysState":{"a":true,"w":true,"e":true," ":true,"arrowright":true},"trial_type":"task-plugin","trial_index":233,"plugin_version":"1.0","time_elapsed":1107946,"medianTaps":{"calibrationPart1Median":35,"calibrationPart2Median":32}},{"task":"success","success":true,"trial_type":"success-screen-plugin","trial_index":235,"plugin_version":null,"time_elapsed":1108453},{"trial_type":"html-keyboard-response","trial_index":236,"plugin_version":null,"time_elapsed":1108861},{"task":"accept","reward":2,"bounds":[20.513665804371676,40.513665804371676],"originalBounds":[20,40],"delay":[0,0],"rt":1572,"stimulus":"\n<div\n  id=\"acceptance-container\"\n  style=\"display: flex; flex-direction: column; justify-content: center; align-items: center; height: 100%;\"\n>\n  <div\n    id=\"thermometer-container\"\n    style=\"display: flex; justify-content: center; align-items: center; height: 300px; width: 100px; border: 1px solid #000; margin-bottom: 10px; box-sizing: border-box;\"\n  >\n    <div\n      id=\"thermometer\"\n      style=\"position: relative; width: 100%; height: 100%; background-color: #e0e0e0; box-sizing: border-box;\"\n    >\n      <div\n        id=\"blue-area\"\n        style=\"position: absolute; bottom: 20.513665804371676%; height: 20%; width: 100%; background-color: blue;\"\n      ></div>\n      <div\n        id=\"lower-bound\"\n        style=\"position: absolute; bottom: 20.513665804371676%; width: 100%; height: 2px; background-color: black;\"\n      ></div>\n      <div\n        id=\"upper-bound\"\n        style=\"position: absolute; bottom: 40.513665804371676%; width: 100%; height: 2px; background-color: black;\"\n      ></div>\n    </div>\n  </div>\n  <p style=\"text-align: center;\">Reward:  2 points</p>\n  <p style=\"text-align: center;\"><br>Press the <b>Right Arrow</b> on your keyboard to accept the trial <svg class='right-arrow' style='width: 48px; height: 48px;'xmlns='http://www.w3.org/2000/svg' viewBox='0 0 16 16'><path fill-rule='evenodd' d='M10.146 4.646a.5.5 0 0 1 .708 0l2.646 2.647-2.646 2.646a.5.5 0 0 1-.708-.707L11.293 8H2a.5.5 0 0 1 0-1h9.293L10.146 5.354a.5.5 0 0 1 0-.708z'/></svg><br>or<br><svg class='left-arrow' style='width: 48px; height: 48px;' xmlns='http://www.w3.org/2000/svg' viewBox='0 0 16 16'><path fill-rule='evenodd' d='M5.854 4.646a.5.5 0 0 0-.708 0L2.5 7.293l2.646 2.647a.5.5 0 0 0 .708-.707L4.707 8H14a.5.5 0 0 0 0-1H4.707l1.147-1.146a.5.5 0 0 0 0-.708z'/></svg>Press the <b>Left Arrow</b> on your keyboard to skip the trial</p>\n</div>\n","response":"ArrowLeft","trial_type":"html-keyboard-response","trial_index":239,"plugin_version":null,"time_elapsed":1110435,"accepted":false},{"trial_type":"html-keyboard-response","trial_index":241,"plugin_version":null,"time_elapsed":1110942},{"task":"accept","reward":10,"bounds":[20.586954223375713,40.58695422337571],"originalBounds":[20,40],"delay":[0,0],"rt":2133,"stimulus":"\n<div\n  id=\"acceptance-container\"\n  style=\"display: flex; flex-direction: column; justify-content: center; align-items: center; height: 100%;\"\n>\n  <div\n    id=\"thermometer-container\"\n    style=\"display: flex; justify-content: center; align-items: center; height: 300px; width: 100px; border: 1px solid #000; margin-bottom: 10px; box-sizing: border-box;\"\n  >\n    <div\n      id=\"thermometer\"\n      style=\"position: relative; width: 100%; height: 100%; background-color: #e0e0e0; box-sizing: border-box;\"\n    >\n      <div\n        id=\"blue-area\"\n        style=\"position: absolute; bottom: 20.586954223375713%; height: 20%; width: 100%; background-color: blue;\"\n      ></div>\n      <div\n        id=\"lower-bound\"\n        style=\"position: absolute; bottom: 20.586954223375713%; width: 100%; height: 2px; background-color: black;\"\n      ></div>\n      <div\n        id=\"upper-bound\"\n        style=\"position: absolute; bottom: 40.58695422337571%; width: 100%; height: 2px; background-color: black;\"\n      ></div>\n    </div>\n  </div>\n  <p style=\"text-align: center;\">Reward:  10 points</p>\n  <p style=\"text-align: center;\"><br>Press the <b>Right Arrow</b> on your keyboard to accept the trial <svg class='right-arrow' style='width: 48px; height: 48px;'xmlns='http://www.w3.org/2000/svg' viewBox='0 0 16 16'><path fill-rule='evenodd' d='M10.146 4.646a.5.5 0 0 1 .708 0l2.646 2.647-2.646 2.646a.5.5 0 0 1-.708-.707L11.293 8H2a.5.5 0 0 1 0-1h9.293L10.146 5.354a.5.5 0 0 1 0-.708z'/></svg><br>or<br><svg class='left-arrow' style='width: 48px; height: 48px;' xmlns='http://www.w3.org/2000/svg' viewBox='0 0 16 16'><path fill-rule='evenodd' d='M5.854 4.646a.5.5 0 0 0-.708 0L2.5 7.293l2.646 2.647a.5.5 0 0 0 .708-.707L4.707 8H14a.5.5 0 0 0 0-1H4.707l1.147-1.146a.5.5 0 0 0 0-.708z'/></svg>Press the <b>Left Arrow</b> on your keyboard to skip the trial</p>\n</div>\n","response":"ArrowRight","trial_type":"html-keyboard-response","trial_index":242,"plugin_version":null,"time_elapsed":1113076,"accepted":true},{"blockType":"sync","task":"block","randomDelay":[0,0],"bounds":[20.586954223375713,40.58695422337571],"reward":10,"tapCount":0,"startTime":0,"endTime":0,"mercuryHeight":0,"error":"","errorOccurred":false,"keysReleasedFlag":false,"success":true,"keyTappedEarlyFlag":false,"keysState":{"a":true,"w":true,"e":true," ":true,"arrowright":true},"trial_type":"task-plugin","trial_index":243,"plugin_version":"1.0","time_elapsed":1113077,"medianTaps":{"calibrationPart1Median":35,"calibrationPart2Median":32}},{"task":"success","success":true,"trial_type":"success-screen-plugin","trial_index":245,"plugin_version":null,"time_elapsed":1113581},{"trial_type":"html-keyboard-response","trial_index":246,"plugin_version":null,"time_elapsed":1114085},{"task":"accept","reward":9,"bounds":[49.46997083257298,69.46997083257298],"originalBounds":[45,65],"delay":[0,0],"rt":3300,"stimulus":"\n<div\n  id=\"acceptance-container\"\n  style=\"display: flex; flex-direction: column; justify-content: center; align-items: center; height: 100%;\"\n>\n  <div\n    id=\"thermometer-container\"\n    style=\"display: flex; justify-content: center; align-items: center; height: 300px; width: 100px; border: 1px solid #000; margin-bottom: 10px; box-sizing: border-box;\"\n  >\n    <div\n      id=\"thermometer\"\n      style=\"position: relative; width: 100%; height: 100%; background-color: #e0e0e0; box-sizing: border-box;\"\n    >\n      <div\n        id=\"blue-area\"\n        style=\"position: absolute; bottom: 49.46997083257298%; height: 20%; width: 100%; background-color: blue;\"\n      ></div>\n      <div\n        id=\"lower-bound\"\n        style=\"position: absolute; bottom: 49.46997083257298%; width: 100%; height: 2px; background-color: black;\"\n      ></div>\n      <div\n        id=\"upper-bound\"\n        style=\"position: absolute; bottom: 69.46997083257298%; width: 100%; height: 2px; background-color: black;\"\n      ></div>\n    </div>\n  </div>\n  <p style=\"text-align: center;\">Reward:  9 points</p>\n  <p style=\"text-align: center;\"><br>Press the <b>Right Arrow</b> on your keyboard to accept the trial <svg class='right-arrow' style='width: 48px; height: 48px;'xmlns='http://www.w3.org/2000/svg' viewBox='0 0 16 16'><path fill-rule='evenodd' d='M10.146 4.646a.5.5 0 0 1 .708 0l2.646 2.647-2.646 2.646a.5.5 0 0 1-.708-.707L11.293 8H2a.5.5 0 0 1 0-1h9.293L10.146 5.354a.5.5 0 0 1 0-.708z'/></svg><br>or<br><svg class='left-arrow' style='width: 48px; height: 48px;' xmlns='http://www.w3.org/2000/svg' viewBox='0 0 16 16'><path fill-rule='evenodd' d='M5.854 4.646a.5.5 0 0 0-.708 0L2.5 7.293l2.646 2.647a.5.5 0 0 0 .708-.707L4.707 8H14a.5.5 0 0 0 0-1H4.707l1.147-1.146a.5.5 0 0 0 0-.708z'/></svg>Press the <b>Left Arrow</b> on your keyboard to skip the trial</p>\n</div>\n","response":"ArrowRight","trial_type":"html-keyboard-response","trial_index":249,"plugin_version":null,"time_elapsed":1117388,"accepted":true},{"blockType":"sync","task":"block","randomDelay":[0,0],"bounds":[49.46997083257298,69.46997083257298],"reward":9,"tapCount":0,"startTime":0,"endTime":0,"mercuryHeight":0,"error":"","errorOccurred":false,"keysReleasedFlag":false,"success":true,"keyTappedEarlyFlag":false,"keysState":{"a":true,"w":true,"e":true," ":true,"arrowright":true},"trial_type":"task-plugin","trial_index":250,"plugin_version":"1.0","time_elapsed":1117389,"medianTaps":{"calibrationPart1Median":35,"calibrationPart2Median":32}},{"task":"success","success":true,"trial_type":"success-screen-plugin","trial_index":252,"plugin_version":null,"time_elapsed":1117897},{"trial_type":"html-keyboard-response","trial_index":253,"plugin_version":null,"time_elapsed":1118102},{"task":"accept","reward":2,"bounds":[64.7725920048928,84.7725920048928],"originalBounds":[70,90],"delay":[0,0],"rt":1011,"stimulus":"\n<div\n  id=\"acceptance-container\"\n  style=\"display: flex; flex-direction: column; justify-content: center; align-items: center; height: 100%;\"\n>\n  <div\n    id=\"thermometer-container\"\n    style=\"display: flex; justify-content: center; align-items: center; height: 300px; width: 100px; border: 1px solid #000; margin-bottom: 10px; box-sizing: border-box;\"\n  >\n    <div\n      id=\"thermometer\"\n      style=\"position: relative; width: 100%; height: 100%; background-color: #e0e0e0; box-sizing: border-box;\"\n    >\n      <div\n        id=\"blue-area\"\n        style=\"position: absolute; bottom: 64.7725920048928%; height: 20%; width: 100%; background-color: blue;\"\n      ></div>\n      <div\n        id=\"lower-bound\"\n        style=\"position: absolute; bottom: 64.7725920048928%; width: 100%; height: 2px; background-color: black;\"\n      ></div>\n      <div\n        id=\"upper-bound\"\n        style=\"position: absolute; bottom: 84.7725920048928%; width: 100%; height: 2px; background-color: black;\"\n      ></div>\n    </div>\n  </div>\n  <p style=\"text-align: center;\">Reward:  2 points</p>\n  <p style=\"text-align: center;\"><br>Press the <b>Right Arrow</b> on your keyboard to accept the trial <svg class='right-arrow' style='width: 48px; height: 48px;'xmlns='http://www.w3.org/2000/svg' viewBox='0 0 16 16'><path fill-rule='evenodd' d='M10.146 4.646a.5.5 0 0 1 .708 0l2.646 2.647-2.646 2.646a.5.5 0 0 1-.708-.707L11.293 8H2a.5.5 0 0 1 0-1h9.293L10.146 5.354a.5.5 0 0 1 0-.708z'/></svg><br>or<br><svg class='left-arrow' style='width: 48px; height: 48px;' xmlns='http://www.w3.org/2000/svg' viewBox='0 0 16 16'><path fill-rule='evenodd' d='M5.854 4.646a.5.5 0 0 0-.708 0L2.5 7.293l2.646 2.647a.5.5 0 0 0 .708-.707L4.707 8H14a.5.5 0 0 0 0-1H4.707l1.147-1.146a.5.5 0 0 0 0-.708z'/></svg>Press the <b>Left Arrow</b> on your keyboard to skip the trial</p>\n</div>\n","response":"ArrowLeft","trial_type":"html-keyboard-response","trial_index":256,"plugin_version":null,"time_elapsed":1119116,"accepted":false},{"trial_type":"html-keyboard-response","trial_index":258,"plugin_version":null,"time_elapsed":1119723},{"task":"accept","reward":25,"bounds":[23.608322180270875,43.608322180270875],"originalBounds":[20,40],"delay":[0,0],"rt":887,"stimulus":"\n<div\n  id=\"acceptance-container\"\n  style=\"display: flex; flex-direction: column; justify-content: center; align-items: center; height: 100%;\"\n>\n  <div\n    id=\"thermometer-container\"\n    style=\"display: flex; justify-content: center; align-items: center; height: 300px; width: 100px; border: 1px solid #000; margin-bottom: 10px; box-sizing: border-box;\"\n  >\n    <div\n      id=\"thermometer\"\n      style=\"position: relative; width: 100%; height: 100%; background-color: #e0e0e0; box-sizing: border-box;\"\n    >\n      <div\n        id=\"blue-area\"\n        style=\"position: absolute; bottom: 23.608322180270875%; height: 20%; width: 100%; background-color: blue;\"\n      ></div>\n      <div\n        id=\"lower-bound\"\n        style=\"position: absolute; bottom: 23.608322180270875%; width: 100%; height: 2px; background-color: black;\"\n      ></div>\n      <div\n        id=\"upper-bound\"\n        style=\"position: absolute; bottom: 43.608322180270875%; width: 100%; height: 2px; background-color: black;\"\n      ></div>\n    </div>\n  </div>\n  <p style=\"text-align: center;\">Reward:  25 points</p>\n  <p style=\"text-align: center;\"><br>Press the <b>Right Arrow</b> on yo